File: quandl/option_iv_rank_by_symbols/TGA.csv
date,hv10,hv10_rank,phv10,phv10_rank,ivcall10,ivcall10_rank,ivput10,ivput10_rank,hv180,hv180_rank,phv180,phv180_rank,ivcall1080,ivcall1080_rank,ivput1080,ivput1080_rank
2022-10-13,0.8274,93,0.829,95,0.8219,93,3.0959,99,0.7261,92,0.6583,87,0.9082,99,2.5229,100
2022-10-07,0.694,85,0.7427,92,0.7764,90,4.5429,100,0.7341,92,0.6572,87,0.7807,96,3.0236,100
2022-09-28,0.9245,96,0.6445,86,0.9255,97,3.2418,99,0.7106,89,0.6397,84,0.8504,98,3.2418,100
2022-09-16,0.3056,22,0.4324,49,0.677,77,1.0905,97,0.696,88,0.6342,84,0.6942,87,0.9387,96
2022-09-12,0.6263,79,0.4382,51,0.6588,74,0.9876,96,0.7012,88,0.6359,84,1.0386,100,0.9736,96
2022-09-02,0.5777,73,0.4923,64,0.8547,95,1.3853,98,0.7086,89,0.65,86,1.094,100,0.9871,97
2022-08-29,0.4352,51,0.485,63,0.7387,86,2.546,99,0.7128,89,0.6643,88,0.7393,92,1.9543,99
2022-08-23,0.6044,77,0.5094,68,0.9438,98,2.2278,99,0.7205,90,0.6698,88,0.8627,98,3.3537,100
2022-08-17,0.3759,38,0.5372,72,0.8713,95,1.4084,98,0.7178,90,0.6705,88,0.8074,97,1.6338,98
2022-08-11,1.1843,99,0.922,97,1.0552,99,3.4075,100,0.7162,90,0.6718,89,0.7495,93,0.8015,94
2022-08-05,1.1649,99,0.8985,97,0.9276,97,1.3363,97,0.7226,91,0.6694,88,0.905,99,0.9102,96
2022-08-01,0.6866,84,0.5915,80,0.87,95,3.4056,100,0.6774,86,0.6479,86,0.6946,87,0.7368,90
2022-07-26,0.6943,85,0.6256,84,0.8574,95,3.3961,100,0.679,86,0.6526,86,0.7433,93,2.0506,99
2022-07-20,0.3476,31,0.6598,87,0.863,95,0.8501,94,0.6871,87,0.6539,87,0.7471,93,2.0928,99
2022-07-14,0.5773,73,0.6905,89,0.8939,96,2.2068,99,0.6893,87,0.6537,87,0.6762,85,1.6376,98
2022-07-08,0.7994,91,0.7793,93,0.9237,97,1.9523,98,0.6908,87,0.6527,86,0.7423,93,1.4194,98
2022-07-01,1.0833,98,0.8996,97,0.8834,96,2.4178,99,0.6861,87,0.6479,86,0.7286,91,1.8884,99
2022-06-27,1.1018,98,0.853,96,0.8071,92,2.7319,99,0.6648,86,0.6356,84,0.6412,79,1.1577,97
2022-06-21,0.7377,88,0.7386,91,0.69,80,0.8288,92,0.6392,82,0.6217,82,0.7014,88,1.2451,98
2022-06-14,0.7684,90,0.7367,91,0.8969,96,1.4532,98,0.6579,85,0.6219,82,0.7041,89,1.2182,98
2022-06-08,0.179,5,0.5162,69,0.6494,72,2.4726,99,0.6439,83,0.6158,81,0.6132,72,1.2144,98
2022-06-02,0.2993,21,0.4559,55,0.634,68,2.33,99,0.6521,84,0.6188,82,0.8024,96,2.084,99
2022-05-26,0.4999,63,0.5567,76,0.5193,38,2.392,99,0.6555,84,0.628,83,0.8448,98,2.2146,99
2022-05-20,0.7375,88,0.6262,84,0.6725,77,0.9268,95,0.6614,85,0.6389,84,0.644,80,2.4139,100
2022-05-16,1.0063,97,0.6843,89,0.7965,91,0.8291,92,0.691,87,0.6527,86,0.848,98,1.2646,98
2022-05-10,0.8209,92,0.7048,90,1.1751,100,0.8919,95,0.6851,87,0.6539,87,1.0486,100,0.9496,96
2022-05-04,0.3945,42,0.608,82,0.7991,91,4.4346,100,0.6819,86,0.6582,87,0.7991,96,2.2946,99
2015-08-10,0.6921,85,0.7411,92,0.5678,51,0.7609,87,0.5096,55,0.5089,68,0.5678,55,0.8429,95
2015-06-22,0.4533,54,0.3627,30,0.8136,92,0.6572,74,0.5774,73,0.5672,77,0.6863,86,0.6572,80
2015-06-16,0.3871,40,0.3193,19,0.4866,26,0.7302,84,0.603,77,0.5837,79,0.4866,26,0.7302,89
2015-06-09,0.2582,14,0.3161,18,0.666,75,0.626,68,0.6067,78,0.6036,80,0.6469,80,0.626,75
2015-06-02,0.333,28,0.3039,15,0.5084,34,0.7497,87,0.619,80,0.6246,82,0.541,46,0.7497,91
2015-05-27,0.3624,35,0.3494,26,0.6233,65,0.7854,90,0.6383,82,0.634,84,0.5754,57,0.7514,91
2015-05-20,0.3496,32,0.4175,45,0.5322,42,0.7623,88,0.6463,83,0.6416,84,0.5322,43,0.7623,92
2015-05-14,0.7649,90,0.5466,74,0.6171,64,0.6772,78,0.6478,83,0.6425,85,0.6642,83,0.6715,82
2015-05-08,0.7771,90,0.5865,80,0.48,23,0.7002,80,0.6633,85,0.6505,86,0.48,23,0.6877,84
2015-05-04,0.2601,14,0.4774,61,0.6319,68,0.6704,76,0.6498,83,0.648,86,0.5823,61,0.6704,82
2015-04-27,0.3199,25,0.3637,30,0.57,52,0.7262,84,0.6523,84,0.6442,85,0.6263,76,0.7262,89
2015-04-21,0.4139,47,0.4881,64,0.4774,22,0.7789,89,0.6574,84,0.6456,85,0.5613,53,0.7497,91
2015-04-14,0.523,67,0.4529,55,0.5776,54,0.6921,79,0.6536,84,0.6477,85,0.5776,60,0.6921,84
2015-04-08,0.5593,71,0.5397,73,0.6027,60,0.8091,91,0.661,85,0.6552,87,0.6027,68,0.8091,95
2015-03-31,0.538,69,0.7091,90,0.6531,73,0.8976,95,0.6517,83,0.6518,86,0.6531,82,0.7982,94
2015-03-25,0.5393,69,0.6357,85,0.4771,22,0.9119,95,0.6546,84,0.6403,84,0.4771,22,0.8357,95
2015-03-19,0.5669,72,0.5698,77,0.7436,87,0.888,94,0.6404,83,0.6357,84,0.7436,93,0.7681,92
2015-03-13,0.3466,31,0.3757,33,0.6634,75,0.739,85,0.6279,81,0.6264,83,0.6634,83,0.739,90
2015-03-09,0.4664,57,0.4507,54,0.823,93,0.6283,69,0.6271,81,0.6245,82,0.823,97,0.6283,75
2015-02-20,0.3889,41,0.5059,67,0.873,95,0.7288,84,0.6145,79,0.6155,81,0.873,99,0.7288,89
2015-02-10,0.8739,94,0.7037,90,0.9007,96,0.713,82,0.6149,79,0.6092,81,0.9007,99,0.713,88
2015-01-29,0.4682,57,0.5035,67,0.811,92,0.6426,72,0.5842,75,0.6006,80,0.811,97,0.6782,83
2015-01-22,0.7131,86,0.7591,92,0.7412,87,0.7103,82,0.5781,73,0.5934,80,0.756,94,0.7462,90
2015-01-15,0.6689,82,0.8514,96,0.9786,98,0.6956,80,0.558,69,0.583,79,0.9786,100,0.6956,85
2014-12-17,0.6031,77,0.7779,93,0.8251,93,0.7542,87,0.4482,37,0.4831,61,0.8251,97,0.7542,91
2014-12-11,0.5682,72,0.7838,93,0.9774,98,0.6229,67,0.4428,35,0.4616,49,0.9737,100,0.6229,74
2014-12-05,0.7554,89,0.7542,92,0.8375,94,0.6706,76,0.4343,31,0.4432,40,0.737,92,0.6706,82
2014-12-01,0.8017,91,0.6117,82,0.7646,89,0.7231,84,0.4273,28,0.4185,28,0.7646,95,0.7231,89
2014-09-30,0.4394,51,0.3881,37,0.4467,12,0.4629,18,0.377,3,0.3566,4,0.4012,3,0.4629,16
2014-09-17,0.2315,10,0.2692,8,0.3595,1,0.4258,7,0.3758,3,0.3548,3,0.3595,1,0.4258,4
2014-09-08,0.3421,30,0.2892,12,0.4271,7,0.3994,2,0.379,4,0.365,6,0.4666,18,0.3994,1
2014-08-27,0.1663,4,0.2957,14,0.3973,3,0.401,2,0.3792,4,0.3771,10,0.3711,1,0.401,2
2014-08-21,0.4124,46,0.4693,59,0.3789,2,0.4809,24,0.378,4,0.3751,9,0.3789,1,0.4371,5
2014-08-15,0.4648,56,0.6428,86,0.4257,7,0.4371,9,0.3788,4,0.3762,10,0.3754,1,0.4416,7
2014-08-11,0.4537,54,0.5523,75,0.4238,6,0.4484,12,0.3737,2,0.3667,7,0.402,3,0.4484,10
2014-08-05,0.3274,27,0.2642,7,0.4936,28,0.4274,7,0.3701,1,0.3494,2,0.4936,28,0.4274,4
2014-07-29,0.1472,2,0.2052,2,0.4339,8,0.4364,8,0.3771,3,0.374,9,0.4142,4,0.4364,5
2014-07-23,0.2959,20,0.238,4,0.3266,1,0.4107,3,0.3959,11,0.388,16,0.4388,7,0.4107,2
2014-07-17,0.2749,17,0.2658,7,0.5451,46,0.3811,1,0.396,11,0.3883,16,0.467,18,0.3811,1
2014-06-20,0.3997,44,0.2506,5,0.3903,3,0.4449,11,0.3984,12,0.3897,17,0.3838,2,0.4448,8
2014-06-10,0.1609,3,0.2541,6,0.4172,5,0.4092,3,0.3946,10,0.3905,18,0.3749,1,0.4092,2
2014-06-03,0.2243,9,0.2509,5,0.4503,13,0.4212,5,0.4065,15,0.3996,22,0.4164,4,0.4212,3
2014-05-28,0.3141,24,0.404,41,0.5272,40,0.4246,6,0.4046,14,0.3976,21,0.4634,16,0.4246,4
2014-05-21,0.2738,16,0.4318,49,0.446,12,0.4312,7,0.4051,15,0.3991,22,0.448,10,0.4312,5
2014-05-15,0.662,82,0.5646,77,0.3923,3,0.4704,21,0.4038,14,0.3911,18,0.3923,2,0.4943,30
2014-05-09,0.8379,93,0.5217,70,0.4139,5,0.4523,14,0.4187,23,0.3914,18,0.4139,4,0.4523,12
2014-05-05,0.3459,31,0.3512,27,0.4358,9,0.4256,7,0.3838,6,0.3857,14,0.4358,6,0.442,7
2014-04-29,0.4498,53,0.3662,31,0.3585,1,0.3532,1,0.3843,6,0.3855,14,0.3585,1,0.3922,1
2014-04-23,0.5201,66,0.3703,32,0.4015,4,0.3991,2,0.3846,6,0.3847,14,0.4015,3,0.3587,1
2014-04-01,0.4404,52,0.389,37,0.3903,3,0.3665,1,0.3885,8,0.3901,17,0.3903,2,0.3995,1
2014-03-14,0.3443,31,0.2846,11,0.3906,3,0.5463,43,0.3803,5,0.3777,11,0.3918,2,0.4432,8
2014-03-10,0.308,23,0.4757,60,0.4194,6,0.402,2,0.378,4,0.3773,10,0.4076,3,0.4035,2
2014-03-04,0.2876,19,0.2909,13,0.4108,5,0.5182,36,0.3787,4,0.3645,6,0.41,4,0.4621,16
2014-02-26,0.3319,28,0.3288,21,0.53,41,0.4247,6,0.3805,5,0.3656,6,0.482,24,0.4247,4
2014-02-20,0.2703,16,0.2767,9,0.4352,9,0.4673,20,0.3865,7,0.3666,7,0.4174,4,0.4673,19
2014-02-13,0.3718,37,0.3377,23,0.4474,12,0.4918,28,0.3876,8,0.3677,7,0.4156,4,0.4918,28
2014-02-07,0.4925,61,0.6389,85,0.4759,21,0.4607,17,0.386,7,0.3721,8,0.4956,30,0.4607,16
2014-02-03,0.4779,59,0.5299,71,0.5556,48,0.4739,22,0.3892,9,0.3545,3,0.5224,40,0.4464,9
2014-01-28,0.501,63,0.4363,50,0.4605,16,0.4537,14,0.3999,12,0.3672,7,0.4538,12,0.4537,12
2014-01-22,0.3367,28,0.3027,15,0.5009,32,0.4623,18,0.3879,8,0.3609,5,0.4539,12,0.4407,7
2014-01-15,0.3907,41,0.316,18,0.4536,14,0.4879,27,0.3886,8,0.3646,6,0.4475,10,0.4645,17
2014-01-09,0.2883,19,0.2777,10,0.5067,34,0.4208,5,0.3859,7,0.3633,6,0.4495,11,0.4372,6
2014-01-03,0.1493,2,0.2273,3,0.4749,20,0.4309,7,0.389,8,0.3628,6,0.4881,26,0.4429,8
2013-12-27,0.3612,34,0.3169,18,0.5065,34,0.499,31,0.3938,10,0.3702,8,0.4304,5,0.4766,22
2013-12-20,0.2981,21,0.2704,8,0.4298,8,0.507,33,0.3952,10,0.3736,9,0.4296,5,0.4747,21
2013-12-16,0.4613,55,0.426,48,0.4595,16,0.4938,28,0.4009,13,0.3889,17,0.4548,13,0.4769,22
2013-12-10,0.4767,59,0.4226,46,0.4558,15,0.4658,19,0.4479,37,0.405,24,0.4332,6,0.4695,19
2013-12-04,0.2759,17,0.2425,4,0.3979,3,0.5143,35,0.4393,33,0.3958,20,0.3996,3,0.483,25
2013-11-27,0.2295,10,0.2609,6,0.4458,11,0.464,19,0.4365,32,0.3956,20,0.4441,8,0.4402,6
2013-11-21,0.4863,60,0.3473,26,0.3979,3,0.4769,23,0.4411,34,0.3991,22,0.4314,6,0.4449,8
2013-11-15,0.6211,79,0.4402,52,0.4635,17,0.4656,19,0.4401,33,0.3998,22,0.4558,13,0.4481,10
2013-11-11,0.5144,65,0.41,43,0.4665,18,0.4669,20,0.4363,32,0.3971,21,0.4466,9,0.468,19
2013-11-05,0.3876,40,0.3791,34,0.4685,18,0.4455,11,0.4371,32,0.3944,19,0.4366,6,0.4358,5
2013-10-30,0.2377,11,0.2716,8,0.5016,32,0.4431,10,0.4354,32,0.3923,19,0.4488,10,0.4567,14
2013-10-24,0.2748,17,0.2368,4,0.4605,16,0.4376,9,0.439,33,0.394,19,0.4558,13,0.4403,7
2013-10-18,0.3105,23,0.323,19,0.3863,2,0.4356,8,0.4452,36,0.3987,22,0.4424,8,0.4444,8
2013-10-14,0.5812,74,0.4664,57,0.4541,14,0.4522,14,0.4483,37,0.4017,23,0.4614,16,0.4772,22
2013-10-08,0.5852,74,0.4727,60,0.487,26,0.445,11,0.4689,45,0.4058,24,0.4815,24,0.4512,11
2013-10-02,0.2424,12,0.3029,15,0.4272,7,0.3896,1,0.454,39,0.4012,23,0.4415,8,0.4371,5
2013-09-26,0.2563,14,0.2869,12,0.4181,5,0.3516,1,0.4567,41,0.3997,22,0.4349,6,0.4402,6
2013-09-20,0.3076,23,0.3082,16,0.4226,6,0.3309,1,0.4586,42,0.3991,22,0.4503,11,0.4398,6
2013-09-16,0.2539,13,0.2345,3,0.448,12,0.5519,44,0.4576,41,0.3974,21,0.4816,24,0.4525,12
2013-09-10,0.2881,19,0.2775,10,0.4252,6,0.4486,12,0.4577,41,0.3974,21,0.4352,6,0.4486,10
2013-09-04,0.468,57,0.3453,25,0.4796,23,0.462,18,0.4561,41,0.397,21,0.4647,17,0.4672,19
2013-08-28,0.4623,56,0.3557,28,0.5209,38,0.4702,21,0.4629,43,0.4045,24,0.5182,39,0.4684,19
2013-08-22,0.3071,23,0.3739,33,0.5337,43,0.4432,10,0.4566,41,0.4008,23,0.4963,31,0.4453,9
2013-08-16,0.4309,50,0.4339,50,0.3559,1,0.5092,33,0.4582,42,0.4011,23,0.4917,28,0.5194,38
2013-08-12,0.6934,85,0.6069,82,0.558,49,0.4564,15,0.4635,43,0.3994,22,0.5393,45,0.4778,23
2013-08-06,0.6456,81,0.5978,81,0.5014,32,0.4899,27,0.4641,44,0.398,21,0.5024,33,0.4803,24
2013-07-31,0.3993,44,0.3913,37,0.5031,33,0.4575,16,0.4465,36,0.378,11,0.5119,37,0.4899,28
2013-07-25,0.2728,16,0.3484,26,0.5062,34,0.4468,11,0.4396,33,0.3743,9,0.4751,21,0.4528,12
2013-07-19,0.3467,31,0.2978,14,0.4928,28,0.4838,25,0.4432,35,0.3753,9,0.4928,28,0.4838,25
2013-07-15,0.4587,55,0.3809,35,0.5055,34,0.4548,15,0.4439,35,0.3776,10,0.5106,37,0.4692,19
2013-07-09,0.3948,43,0.4685,57,0.472,20,0.5322,40,0.4593,42,0.3936,19,0.5041,34,0.4914,28
2013-07-02,0.3946,42,0.4687,57,0.457,15,0.5218,37,0.4571,41,0.3875,15,0.4796,23,0.4964,30
2013-06-26,0.8966,95,0.7245,91,0.4435,10,0.4849,26,0.4533,39,0.3827,13,0.5182,39,0.5187,38
2013-06-20,0.8387,93,0.5399,73,0.5895,57,0.4659,19,0.4472,36,0.367,7,0.5556,50,0.5023,32
2013-06-14,0.1187,1,0.1878,1,0.5338,43,0.4539,15,0.401,13,0.3472,2,0.4996,32,0.4848,25
2013-06-10,0.2739,16,0.3273,20,0.5353,43,0.4612,17,0.409,16,0.3526,3,0.4661,17,0.4612,16
2013-06-04,0.3682,36,0.3431,24,0.5162,37,0.4911,28,0.4154,20,0.3573,4,0.475,21,0.457,14
2013-05-29,0.5074,64,0.3876,37,0.4583,16,0.4758,22,0.4104,17,0.3528,3,0.4583,14,0.4543,13
2013-05-22,0.5519,70,0.3764,33,0.4454,11,0.4031,2,0.4201,24,0.3573,4,0.4845,25,0.4031,2
2013-05-16,0.3894,41,0.3204,19,0.4824,24,0.474,22,0.4157,20,0.3557,3,0.4893,27,0.474,21
2013-05-10,0.3886,41,0.3672,31,0.4258,7,0.4925,28,0.4144,19,0.3576,4,0.4658,17,0.4533,12
2013-05-06,0.3916,41,0.3472,26,0.4404,10,0.4658,19,0.4134,18,0.3591,5,0.4812,23,0.4555,13
2013-04-30,0.4426,52,0.3927,38,0.4444,11,0.4183,4,0.433,31,0.3652,6,0.4734,21,0.4557,13
2013-04-24,0.5552,71,0.4116,44,0.4309,8,0.4919,28,0.426,27,0.3625,5,0.4827,24,0.4712,20
2013-04-18,0.7025,85,0.4977,66,0.5762,54,0.4568,16,0.4202,24,0.36,5,0.4865,26,0.4568,14
2013-04-12,0.3959,43,0.3652,30,0.4469,12,0.4969,30,0.3975,11,0.3515,2,0.4469,10,0.4469,9
2013-04-08,0.3155,25,0.2752,9,0.469,19,0.5128,35,0.3916,9,0.3433,1,0.469,19,0.4568,14
2013-04-01,0.1479,2,0.2225,3,0.5069,34,0.4788,23,0.3954,10,0.346,1,0.4605,15,0.3945,1
2013-03-25,0.2886,19,0.2496,5,0.5049,33,0.4828,25,0.4024,13,0.3486,2,0.4481,10,0.4237,4
2013-03-19,0.2852,18,0.2347,3,0.4443,11,0.4534,14,0.4041,14,0.3531,3,0.4435,8,0.4369,5
2013-03-13,0.3949,43,0.4223,46,0.4388,9,0.4519,13,0.405,15,0.3564,4,0.4364,6,0.4166,3
2013-03-07,0.4033,44,0.4185,45,0.4786,22,0.4746,22,0.419,23,0.3631,6,0.4537,12,0.451,11
2013-03-01,0.3559,33,0.2992,14,0.4973,31,0.5352,40,0.413,18,0.3585,4,0.4687,19,0.4601,15
2013-02-25,0.4363,51,0.3432,24,0.5159,37,0.5287,39,0.4111,17,0.3585,4,0.4861,25,0.4664,18
2013-02-19,0.4341,50,0.3414,24,0.4822,24,0.5416,42,0.4084,16,0.3559,3,0.4554,13,0.4664,18
2013-02-12,0.4007,44,0.2991,14,0.4585,16,0.4611,17,0.4161,20,0.3586,4,0.4458,9,0.4661,18
2013-02-06,0.136,2,0.2077,2,0.4936,28,0.4758,22,0.4081,16,0.3668,7,0.455,13,0.4531,12
2013-01-31,0.3805,39,0.3644,30,0.4702,19,0.4672,20,0.4218,25,0.3737,9,0.4515,11,0.4578,14
2013-01-25,0.4203,48,0.3932,38,0.4719,20,0.4558,15,0.4455,36,0.3868,15,0.4628,16,0.4615,16
2013-01-18,0.7078,86,0.5819,79,0.451,13,0.457,16,0.4445,36,0.3855,14,0.5081,36,0.4848,25
2013-01-14,0.6589,82,0.5466,74,0.4715,20,0.4926,28,0.4468,36,0.3865,15,0.5133,37,0.4913,28
2013-01-08,0.2709,16,0.2616,6,0.5119,36,0.4974,30,0.4308,30,0.3718,8,0.5218,40,0.4905,28
2013-01-02,0.2677,15,0.2674,7,0.4552,15,0.487,27,0.4405,34,0.3767,10,0.502,33,0.5075,35
2012-12-26,0.1942,6,0.2411,4,0.5141,36,0.4795,23,0.4722,47,0.3923,19,0.506,35,0.4717,20
2012-12-19,0.3879,40,0.322,19,0.4813,24,0.4953,28,0.4729,47,0.3954,20,0.5035,34,0.5134,36
2012-12-13,0.459,55,0.4056,42,0.5744,53,0.5104,34,0.5131,56,0.4168,27,0.5074,36,0.5073,35
2012-12-07,0.2589,14,0.3071,16,0.4646,17,0.497,30,0.5086,55,0.4173,27,0.4996,32,0.4978,31
2012-12-03,0.4613,55,0.359,28,0.4971,31,0.4586,16,0.5047,54,0.4167,27,0.5118,37,0.4898,28
2012-11-27,0.5964,76,0.4037,41,0.4753,21,0.5067,33,0.5192,57,0.427,30,0.4942,30,0.4922,28
2012-11-20,0.4833,60,0.3949,39,0.4798,23,0.4677,20,0.5148,57,0.4287,31,0.4904,27,0.487,27
2012-11-14,0.3159,25,0.3476,26,0.494,30,0.4036,2,0.5112,56,0.427,30,0.495,30,0.4701,20
2012-11-08,0.6721,83,0.4749,60,0.5964,59,0.4161,4,0.5317,61,0.4351,35,0.4901,27,0.4704,20
2012-11-02,0.661,82,0.4419,52,0.4291,8,0.483,25,0.5329,62,0.4442,40,0.4926,28,0.4711,20
2012-10-25,0.2701,16,0.2896,12,0.5323,42,0.4398,9,0.529,61,0.4528,45,0.5189,39,0.4697,19
2012-10-19,0.2679,15,0.2645,7,0.4769,21,0.4823,25,0.5345,62,0.4542,45,0.4872,26,0.4747,21
2012-10-15,0.1129,1,0.1825,1,0.5448,45,0.4521,14,0.5347,62,0.455,46,0.4901,27,0.4596,15
2012-10-09,0.41,46,0.2799,10,0.5124,36,0.5116,34,0.539,63,0.4578,47,0.4672,18,0.4923,28
2012-10-03,0.5634,72,0.3915,37,0.5015,32,0.4716,21,0.5545,67,0.4655,52,0.4896,27,0.4813,24
2012-09-27,0.344,31,0.3687,31,0.4472,12,0.5087,33,0.5477,65,0.4626,50,0.4702,20,0.504,33
2012-09-21,0.3678,36,0.3941,39,0.4433,10,0.4782,23,0.5441,64,0.4614,49,0.4993,32,0.4742,21
2012-09-17,0.4245,49,0.3859,36,0.4756,21,0.4622,18,0.5461,65,0.4598,48,0.486,25,0.4812,24
2012-09-11,0.5238,67,0.4443,53,0.4953,30,0.4361,8,0.5433,64,0.4563,46,0.4945,30,0.4649,17
2012-09-05,0.414,47,0.3653,30,0.4918,28,0.4765,23,0.5387,63,0.4542,45,0.494,30,0.5382,43
2012-08-29,0.3806,39,0.2872,12,0.5073,34,0.4331,8,0.5363,63,0.4523,44,0.4892,27,0.5454,46
2012-08-23,0.4661,57,0.3459,25,0.5024,32,0.4201,5,0.5369,63,0.4514,44,0.5349,44,0.5003,32
2012-08-17,0.4146,47,0.4935,65,0.4898,27,0.4773,23,0.5366,63,0.4516,44,0.4648,17,0.5357,43
2012-08-13,0.3723,37,0.5028,66,0.5051,33,0.4534,14,0.5326,62,0.4491,43,0.5232,41,0.5158,37
2012-08-07,0.5625,72,0.4229,47,0.6556,73,0.5266,38,0.5336,62,0.4406,38,0.5212,40,0.5038,33
2012-08-01,0.7249,87,0.5266,70,0.5796,54,0.5443,43,0.5225,59,0.4375,36,0.5723,57,0.5391,44
2012-07-26,0.395,43,0.35,27,0.5426,45,0.5347,40,0.5176,57,0.4342,35,0.5279,42,0.5837,60
2012-07-20,0.5076,64,0.3927,38,0.5525,47,0.5704,51,0.5122,56,0.4334,34,0.5768,59,0.5539,48
2012-07-16,0.4132,47,0.3317,22,0.5674,51,0.6025,62,0.5165,57,0.4347,35,0.5331,43,0.5504,47
2012-07-10,0.8674,94,0.5381,72,0.6126,62,0.5733,52,0.5133,56,0.4356,35,0.5825,62,0.5689,54
2012-07-03,0.7022,85,0.5463,74,0.527,40,0.5666,49,0.507,55,0.4331,34,0.5411,46,0.5739,57
2012-06-27,0.8375,93,0.6412,85,0.595,57,0.6508,73,0.4913,51,0.4235,28,0.5968,66,0.6059,68
2012-06-21,0.736,88,0.6467,86,0.6548,73,0.5972,60,0.4927,52,0.4215,28,0.6397,79,0.6146,72
2012-06-15,0.2727,16,0.3796,34,0.5249,40,0.6206,67,0.4666,45,0.4094,25,0.565,54,0.571,55
2012-06-11,0.5139,65,0.444,53,0.5904,57,0.5629,48,0.4755,48,0.4142,26,0.568,55,0.5484,46
2012-06-05,0.6493,81,0.5265,70,0.6073,61,0.6554,74,0.4857,50,0.4176,27,0.5933,65,0.5899,63
2012-05-30,0.4952,62,0.4365,50,0.6458,72,0.5194,36,0.4759,48,0.4122,25,0.5364,44,0.5376,43
2012-05-23,0.4764,59,0.4307,49,0.4952,30,0.5896,57,0.4787,49,0.4105,25,0.5046,34,0.5376,43
2012-05-17,0.6515,81,0.5925,80,0.5336,42,0.5799,54,0.4954,52,0.4137,26,0.5416,46,0.5239,40
2012-05-11,0.5811,74,0.7174,90,0.4927,28,0.4654,19,0.4749,48,0.4068,24,0.4761,22,0.4697,19
2012-05-07,0.6209,79,0.5814,79,0.4802,23,0.4782,23,0.4864,50,0.4002,23,0.4561,13,0.4586,14
2012-05-01,0.3941,42,0.3366,23,0.3827,2,0.4493,12,0.4679,45,0.3844,14,0.4281,5,0.4582,14
2012-04-25,0.3024,22,0.3009,15,0.4416,10,0.4611,17,0.4812,50,0.3903,17,0.4366,6,0.4677,19
2012-04-19,0.6452,81,0.4319,49,0.4664,18,0.4534,14,0.4863,50,0.4024,24,0.4573,14,0.4638,17
2012-04-13,0.6101,78,0.4005,41,0.4459,11,0.4497,12,0.4867,50,0.4097,25,0.4561,13,0.4272,4
2012-04-09,0.3173,25,0.2874,12,0.4897,27,0.4536,14,0.4766,48,0.4108,25,0.4467,9,0.4439,8
2012-04-02,0.3474,31,0.2868,12,0.4258,7,0.444,10,0.4941,52,0.4449,41,0.4371,7,0.443,8
2012-03-27,0.3405,30,0.2714,8,0.4046,4,0.423,6,0.5116,56,0.4624,50,0.445,9,0.441,7
2012-03-21,0.3981,43,0.3118,17,0.3508,1,0.4215,5,0.5197,59,0.4702,54,0.4179,4,0.4759,22
2012-03-15,0.4315,50,0.3526,27,0.4329,8,0.4528,14,0.5453,65,0.4796,60,0.4704,20,0.4872,27
2012-03-09,0.3168,25,0.292,13,0.4448,11,0.4632,18,0.5505,66,0.4837,62,0.4722,20,0.4723,20
2012-03-05,0.3024,22,0.2594,6,0.4414,10,0.5694,50,0.5684,71,0.4942,65,0.4601,15,0.4828,25
2012-02-28,0.3883,41,0.2862,12,0.4419,10,0.4762,23,0.5697,71,0.4961,66,0.4581,14,0.5003,32
2012-02-22,0.3735,37,0.2903,13,0.4848,25,0.4857,26,0.5733,72,0.5015,67,0.4895,27,0.4897,28
2012-02-15,0.2264,9,0.3131,17,0.4849,25,0.51,33,0.5763,73,0.5063,68,0.5027,34,0.5148,37
2012-02-09,0.5483,70,0.4536,55,0.5034,33,0.5166,35,0.5904,76,0.512,69,0.4966,31,0.5041,33
2012-02-03,0.5522,70,0.4619,57,0.5015,32,0.4707,21,0.6188,80,0.5393,72,0.5116,37,0.492,28
2012-01-30,0.3607,34,0.359,28,0.5424,45,0.5814,54,0.6289,82,0.5488,75,0.5043,34,0.5336,42
2012-01-24,0.5115,65,0.4369,51,0.526,40,0.4911,28,0.6416,83,0.5518,75,0.5369,44,0.5032,33
2012-01-18,0.4295,50,0.3802,34,0.5453,46,0.5252,37,0.6384,82,0.5485,75,0.5399,45,0.54,44
2012-01-11,0.557,71,0.4087,43,0.4845,25,0.4946,28,0.6366,82,0.5458,74,0.5457,47,0.5574,50
2012-01-05,0.5774,73,0.3876,37,0.5128,36,0.6528,73,0.6339,82,0.5455,74,0.5612,52,0.5743,57
2011-12-29,0.6069,77,0.4274,48,0.5477,46,0.5442,42,0.6247,81,0.5438,73,0.6023,68,0.6022,67
2011-12-22,0.5302,68,0.4545,55,0.5721,52,0.5506,44,0.6334,82,0.5476,75,0.6129,72,0.5929,64
2011-12-16,0.5733,73,0.5222,70,0.6252,66,0.6678,76,0.6269,81,0.5489,75,0.6386,79,0.639,77
2011-12-12,0.5163,66,0.4328,50,0.6171,64,0.6538,74,0.6203,80,0.5435,73,0.6249,76,0.641,78
2011-12-06,0.5421,69,0.4352,50,0.6297,67,0.6909,79,0.6212,80,0.5457,74,0.634,78,0.6316,76
2011-11-30,0.7647,90,0.4347,50,0.6202,64,0.7091,82,0.6213,80,0.5441,73,0.637,78,0.6518,79
2011-11-23,0.3261,27,0.4591,56,0.7178,84,0.6627,76,0.6172,79,0.5465,74,0.6863,86,0.6861,84
2011-11-17,0.5562,71,0.4294,48,0.674,77,0.709,82,0.6219,80,0.5444,73,0.6565,82,0.6454,78
2011-11-11,0.5874,74,0.4388,51,0.6633,75,0.6653,76,0.6239,81,0.544,73,0.636,78,0.6388,77
2011-11-07,0.5585,71,0.4285,48,0.6373,69,0.6973,80,0.6156,79,0.5412,72,0.5826,62,0.6337,76
2011-11-01,0.7211,87,0.6,81,0.6838,78,0.7013,81,0.6276,81,0.5444,73,0.6169,74,0.6554,80
2011-10-26,0.3731,37,0.6231,83,0.611,62,0.6921,79,0.6256,81,0.5441,73,0.6224,75,0.6626,81
2011-10-20,0.4925,61,0.5453,74,0.7731,89,0.7404,85,0.6182,79,0.5338,72,0.6927,87,0.6776,83
2011-10-14,0.5924,75,0.7967,94,0.6682,76,0.7397,85,0.6151,79,0.5264,71,0.6556,82,0.6877,84
2011-10-10,0.8773,94,0.8875,97,0.7774,90,0.7777,89,0.6102,78,0.5212,70,0.6992,88,0.6992,86
2011-10-04,0.7329,88,0.6997,89,0.8987,96,0.9324,95,0.5946,76,0.4949,66,0.7251,91,0.7787,93
2011-09-28,0.8084,92,0.58,79,0.7907,91,0.7255,84,0.5835,75,0.4782,59,0.6994,88,0.6591,80
2011-09-22,0.8877,95,0.5678,77,0.7479,87,0.7565,87,0.5739,72,0.4691,53,0.6841,86,0.6738,82
2011-09-16,0.6372,80,0.5397,73,0.6307,68,0.6724,77,0.5579,69,0.4639,51,0.6131,72,0.6609,81
2011-09-12,0.7291,87,0.5474,74,0.6895,80,0.7844,90,0.55,66,0.4606,49,0.6237,75,0.6943,85
2011-09-06,0.4845,60,0.4206,46,0.703,82,0.7357,85,0.5305,61,0.4569,47,0.6269,76,0.7067,87
2011-08-30,0.5094,64,0.48,62,0.7343,86,0.7016,81,0.5325,62,0.4598,48,0.6557,82,0.6465,78
2011-08-24,0.5664,72,0.4872,63,0.7132,83,0.7438,86,0.5263,60,0.4548,46,0.6475,81,0.6868,84
2011-08-18,0.7946,91,0.6674,87,0.7597,88,0.8286,92,0.5225,59,0.4503,43,0.6169,74,0.7014,86
2011-08-12,1.1239,98,0.9475,98,0.7437,87,0.7623,88,0.5162,57,0.4489,43,0.6966,88,0.6529,79
2011-08-08,0.637,80,0.6774,88,0.8267,93,0.9,95,0.4851,50,0.4205,28,0.6712,84,0.6233,74
2011-08-02,0.5324,68,0.3898,37,0.6373,69,0.5681,50,0.4892,51,0.4111,25,0.5824,61,0.557,50
2011-07-27,0.3715,37,0.2625,7,0.6202,64,0.5531,45,0.5096,55,0.4249,28,0.5626,53,0.5486,47
2011-07-21,0.2668,15,0.2858,12,0.544,45,0.5341,40,0.5089,55,0.4287,31,0.5528,49,0.5474,46
2011-07-15,0.362,34,0.3303,21,0.5724,52,0.5721,51,0.5078,55,0.4307,33,0.561,52,0.5808,59
2011-07-11,0.586,74,0.4216,46,0.5615,50,0.5996,61,0.5079,55,0.4283,31,0.5664,55,0.5685,54
2011-07-05,0.6524,81,0.4863,63,0.5385,44,0.5598,47,0.5091,55,0.4266,30,0.5619,53,0.5549,49
2011-06-28,0.4862,60,0.4971,65,0.5658,51,0.5102,34,0.4949,52,0.4212,28,0.5753,57,0.5951,65
2011-06-22,0.4599,55,0.4544,55,0.5232,39,0.5502,44,0.4894,51,0.4139,26,0.5892,64,0.5667,53
2011-06-16,0.5021,63,0.4901,64,0.5626,50,0.6145,65,0.4942,52,0.417,27,0.5774,59,0.5769,57
2011-06-10,0.3571,34,0.4195,45,0.5643,51,0.5607,47,0.5243,59,0.4368,36,0.553,50,0.5546,49
2011-06-06,0.7785,90,0.4692,59,0.5397,44,0.5877,56,0.5212,59,0.4458,41,0.5478,48,0.5636,52
2011-05-31,0.5532,70,0.3962,39,0.4143,5,0.4912,28,0.531,61,0.4547,46,0.5153,38,0.543,45
2011-05-24,0.4633,56,0.3662,31,0.5323,42,0.5418,42,0.5141,57,0.4542,45,0.56,52,0.5803,59
2011-05-18,0.481,60,0.401,41,0.5405,44,0.5531,45,0.5268,60,0.4578,47,0.5748,57,0.5795,59
2011-05-12,0.7087,86,0.4429,52,0.5366,43,0.557,46,0.5486,66,0.468,53,0.5522,49,0.5733,56
2011-05-06,0.5223,66,0.4138,44,0.5412,44,0.5419,42,0.5349,62,0.4652,52,0.5693,56,0.5679,54
2011-05-02,0.1832,5,0.2387,4,0.5292,41,0.5552,46,0.5701,71,0.4739,57,0.5552,50,0.5572,50
2011-04-26,0.2462,12,0.2774,10,0.5197,38,0.5458,43,0.5745,72,0.4757,57,0.5507,49,0.5803,59
2011-04-19,0.3134,24,0.3706,32,0.5271,40,0.5663,49,0.5768,73,0.479,59,0.5603,52,0.5698,55
2011-04-13,0.3618,34,0.3515,27,0.5442,45,0.5369,41,0.5909,76,0.4855,63,0.572,57,0.5613,51
2011-04-07,0.2285,10,0.2414,4,0.5276,41,0.4395,9,0.5932,76,0.4871,63,0.5722,57,0.5512,47
2011-04-01,0.3333,28,0.338,23,0.5319,42,0.4027,2,0.5981,76,0.4901,64,0.5652,54,0.5533,48
2011-03-28,0.3993,44,0.3899,37,0.5059,34,0.5435,42,0.5994,77,0.4929,65,0.58,60,0.5584,50
2011-03-22,0.3281,27,0.4745,60,0.5538,48,0.4946,28,0.6039,77,0.4916,65,0.6174,74,0.5933,64
2011-03-16,0.3173,25,0.5318,71,0.6922,80,0.7216,83,0.615,79,0.4947,66,0.6441,80,0.622,73
2011-03-10,0.4072,45,0.3804,34,0.6963,81,0.7616,87,0.6131,78,0.4863,63,0.5936,66,0.6028,67
2011-03-04,0.2917,20,0.3243,20,0.594,57,0.6111,64,0.6096,78,0.4826,61,0.575,57,0.5941,65
2011-02-28,0.5636,72,0.4237,47,0.5748,53,0.6167,66,0.6106,78,0.4827,61,0.5693,56,0.5903,63
2011-02-22,0.439,51,0.4421,52,0.5905,57,0.5983,61,0.6139,79,0.484,62,0.5697,56,0.5776,57
2011-02-15,0.796,91,0.5829,79,0.5466,46,0.5511,44,0.6038,77,0.4769,57,0.5624,53,0.5781,57
2011-02-09,0.8372,93,0.6371,85,0.5356,43,0.5607,47,0.6017,77,0.4719,55,0.5888,64,0.5766,57
2011-02-03,0.9123,95,0.646,86,0.5651,51,0.5191,36,0.5825,74,0.4597,48,0.5843,62,0.5829,60
2011-01-28,0.2725,16,0.4017,41,0.5183,37,0.4802,24,0.5505,66,0.4427,40,0.5869,63,0.5931,64
2011-01-24,0.192,6,0.2965,14,0.4862,26,0.52,36,0.5444,65,0.439,37,0.5882,63,0.6033,67
2011-01-18,0.3933,42,0.2193,2,0.6494,72,0.5531,45,0.5438,64,0.4373,36,0.6122,72,0.5881,62
2011-01-11,0.3629,35,0.286,12,0.5093,35,0.5317,39,0.5465,65,0.4409,39,0.5944,66,0.6051,68
2011-01-05,0.1555,3,0.2891,12,0.5511,47,0.539,41,0.543,64,0.4404,38,0.6102,71,0.6012,67
2010-12-30,0.4654,56,0.3934,38,0.5425,45,0.5261,38,0.5481,65,0.4431,40,0.6051,69,0.6009,67
2010-12-23,0.6259,79,0.5802,79,0.5625,50,0.5812,54,0.5501,66,0.4488,43,0.6127,72,0.6054,68
2010-12-17,0.865,94,0.7526,92,0.602,60,0.5809,54,0.5507,66,0.4484,42,0.6216,75,0.6187,73
2010-12-13,0.5951,76,0.6895,89,0.7134,83,0.5719,51,0.5145,57,0.4247,28,0.5985,67,0.5692,54
2010-12-07,0.6329,80,0.5988,81,0.6152,63,0.579,53,0.5104,56,0.4118,25,0.5576,51,0.5523,48
2010-12-01,0.5723,73,0.4551,55,0.5661,51,0.556,46,0.4933,52,0.3971,21,0.5296,43,0.5469,46
2010-11-24,0.9654,96,0.606,82,0.5456,46,0.5549,45,0.508,55,0.4018,23,0.5304,43,0.5506,47
2010-11-18,0.797,91,0.5542,75,0.5703,52,0.5913,57,0.498,53,0.4004,23,0.5448,47,0.5362,43
2010-11-12,0.8521,94,0.6058,82,0.5699,52,0.7064,81,0.4883,51,0.3972,21,0.5425,46,0.5565,49
2010-11-05,0.7171,87,0.5567,76,0.6257,66,0.6307,69,0.4868,50,0.3952,20,0.5211,40,0.5303,41
2010-11-01,0.3728,37,0.3606,28,0.5674,51,0.5837,55,0.4383,33,0.3848,14,0.4999,32,0.5068,34
2010-10-26,0.6405,80,0.4851,63,0.4763,21,0.4806,24,0.4385,33,0.421,28,0.4948,30,0.4871,27
2010-10-20,0.7714,90,0.5132,68,0.5084,34,0.4648,19,0.449,37,0.4225,28,0.4911,28,0.487,27
2010-10-14,0.5331,68,0.4045,42,0.4434,10,0.4169,4,0.4259,27,0.4134,26,0.4609,15,0.4415,7
2010-10-08,0.4418,52,0.3997,40,0.4268,7,0.4164,4,0.42,24,0.4148,26,0.4501,11,0.4582,14
2010-10-04,0.4839,60,0.3495,26,0.5018,32,0.4275,7,0.4148,19,0.4154,26,0.4649,17,0.4487,10
2010-09-28,0.5565,71,0.428,48,0.3824,2,0.4118,4,0.4105,17,0.4159,26,0.4731,21,0.419,3
2010-09-22,0.6115,78,0.4201,46,0.4927,28,0.4082,3,0.4194,23,0.4223,28,0.454,12,0.4449,8
2010-09-16,0.3165,25,0.2698,8,0.48,23,0.4228,6,0.4243,27,0.4263,30,0.4911,28,0.4663,18
2010-09-10,0.3481,32,0.3174,18,0.4414,10,0.4011,2,0.4283,28,0.4318,33,0.4396,7,0.4984,31
2010-09-02,0.3834,39,0.3082,16,0.4176,5,0.5032,32,0.4478,37,0.4642,51,0.4723,20,0.5032,33
2010-08-27,0.2713,16,0.2364,4,0.4544,14,0.4867,26,0.451,38,0.4675,53,0.4544,13,0.4829,25
2010-08-23,0.3268,27,0.2195,2,0.4686,19,0.4511,13,0.4481,37,0.4677,53,0.4686,19,0.4657,18
2010-08-17,0.3388,28,0.2292,3,0.4656,18,0.4736,21,0.453,39,0.4706,54,0.4656,17,0.5239,40
2010-08-09,0.1174,1,0.2845,11,0.4786,22,0.433,8,0.4484,37,0.4712,55,0.4786,22,0.486,26
2010-08-03,0.1469,2,0.253,5,0.4892,27,0.4569,16,0.4488,37,0.4733,56,0.4892,27,0.4721,20
2010-07-28,0.2806,18,0.3116,17,0.4439,11,0.4996,31,0.4654,44,0.4862,63,0.5015,33,0.5034,33
2010-07-22,0.4031,44,0.3371,23,0.509,35,0.5279,38,0.4655,44,0.4925,65,0.5167,38,0.5279,41
2010-07-16,0.2873,19,0.2761,9,0.5697,52,0.5107,34,0.4625,43,0.4891,64,0.5189,39,0.5107,36
2010-07-12,0.5034,63,0.4886,64,0.5532,48,0.521,36,0.4612,43,0.4895,64,0.5151,38,0.521,39
2010-07-06,0.466,56,0.5128,68,0.5578,49,0.5253,38,0.4636,44,0.4917,65,0.5266,42,0.5253,40
2010-06-29,0.4224,48,0.4419,52,0.6393,70,0.5658,49,0.4595,42,0.4874,63,0.5843,62,0.5068,34
2010-06-22,0.2052,7,0.3262,20,0.4988,31,0.473,21,0.4557,40,0.4837,62,0.4988,31,0.4796,23
2010-06-16,0.1829,5,0.2787,10,0.4828,24,0.5148,35,0.4543,40,0.4805,60,0.51,36,0.5125,36
2010-06-10,0.6039,77,0.461,57,0.5699,52,0.5894,57,0.4632,43,0.4848,62,0.4802,23,0.5636,52
2010-06-04,0.6529,81,0.5082,67,0.5973,59,0.5289,39,0.4662,44,0.4836,62,0.5556,50,0.5289,41
2010-05-28,0.6951,85,0.5158,69,0.6071,61,0.5663,49,0.4504,38,0.4767,57,0.5373,45,0.5352,42
2010-05-24,0.5261,67,0.5083,67,0.6927,80,0.5599,47,0.458,41,0.4793,60,0.5448,47,0.5199,39
2010-05-18,0.3963,43,0.3619,30,0.5472,46,0.4763,23,0.4402,33,0.4735,57,0.5073,35,0.4763,22
2010-05-12,0.5069,64,0.8343,95,0.5278,41,0.5771,53,0.4485,37,0.4789,59,0.5091,36,0.5161,37
2010-05-06,0.4581,55,0.8166,94,0.5871,56,0.5484,44,0.4515,38,0.4783,59,0.5361,44,0.5219,39
2010-04-30,0.4815,60,0.3998,40,0.466,18,0.4864,26,0.4569,41,0.4544,45,0.4779,22,0.4864,26
2010-04-26,0.2749,17,0.3938,38,0.4943,30,0.4901,27,0.4612,43,0.4639,51,0.4933,28,0.4901,28
2010-04-20,0.2498,12,0.4286,48,0.5504,47,0.4933,28,0.4685,45,0.4715,55,0.508,36,0.4866,26
2010-04-14,0.3408,30,0.4534,55,0.4869,26,0.5362,40,0.4659,44,0.4704,54,0.5021,33,0.467,18
2010-04-08,0.5136,65,0.4801,62,0.4764,21,0.474,22,0.4739,47,0.47,54,0.4836,24,0.474,21
2010-04-01,0.623,79,0.5764,78,0.479,22,0.4628,18,0.4722,47,0.4708,55,0.4571,14,0.4587,15
2010-03-26,0.6807,84,0.5493,74,0.5131,36,0.4571,16,0.4655,44,0.4715,55,0.5131,37,0.461,16
2010-02-08,0.5942,76,0.6037,82,0.6127,62,0.5715,51,0.4244,27,0.4446,40,0.6045,69,0.5715,55
2010-02-01,0.375,38,0.4206,46,0.5633,50,0.5631,48,0.418,22,0.4418,39,0.5292,42,0.5631,52
2010-01-26,0.2641,15,0.211,2,0.5546,48,0.6,61,0.4161,20,0.439,37,0.5369,44,0.6,66
2010-01-20,0.3311,28,0.3439,24,0.6161,63,0.4812,24,0.4142,19,0.4394,38,0.57,56,0.4812,24
2010-01-06,0.3445,31,0.3813,35,0.6545,73,0.6073,63,0.4175,22,0.4493,43,0.6545,82,0.6073,69
2009-12-30,0.3598,34,0.2921,13,0.6507,73,0.6187,66,0.4384,33,0.4749,57,0.6507,81,0.6187,73
2009-12-23,0.3731,37,0.3375,23,0.6224,65,0.6051,62,0.444,35,0.4776,59,0.5962,66,0.6051,68
2009-12-17,0.4758,57,0.3681,31,0.6207,65,0.5489,44,0.4534,39,0.48,60,0.5786,60,0.5489,47
2009-12-11,0.3158,25,0.3399,24,0.6263,66,0.4995,31,0.449,37,0.477,57,0.5709,57,0.4995,31
2009-12-07,0.355,33,0.3994,40,0.582,55,0.6,61,0.4514,38,0.4818,61,0.5948,66,0.6,66
2009-12-01,0.5465,70,0.4718,59,0.5793,54,0.6049,62,0.4543,40,0.4834,61,0.6109,71,0.6049,68
2009-11-24,0.3599,34,0.4067,42,0.5861,56,0.6105,64,0.4545,40,0.4853,63,0.5847,62,0.6105,70
2009-11-18,0.4752,57,0.4545,55,0.6274,67,0.5956,60,0.4547,40,0.4821,61,0.6007,68,0.5956,65
2009-11-12,0.3118,24,0.4577,56,0.6213,65,0.5796,54,0.4468,36,0.487,63,0.6199,75,0.5796,59
2009-11-06,0.6533,81,0.6379,85,0.6859,79,0.6008,61,0.4489,37,0.4848,62,0.5926,65,0.6008,67
2009-10-30,0.4957,62,0.6217,83,0.5856,56,0.5549,45,0.4497,38,0.4855,63,0.5515,49,0.5549,49
2009-10-02,0.4646,56,0.4611,57,0.6279,67,0.6461,72,0.464,44,0.4907,65,0.6063,69,0.6461,78
2009-09-28,0.3504,32,0.4476,54,0.6288,67,0.5726,51,0.4752,48,0.4966,66,0.6288,77,0.5726,56
2009-09-21,0.4649,56,0.5527,75,0.5933,57,0.5954,60,0.4727,47,0.5045,67,0.5933,65,0.5954,65
2009-09-15,0.411,46,0.4625,57,0.5921,57,0.5915,57,0.4748,48,0.5012,67,0.5921,65,0.5915,63
2009-09-09,0.4009,44,0.4455,53,0.6181,64,0.6036,62,0.4771,48,0.5036,67,0.6181,74,0.6036,68
2009-09-02,0.2617,15,0.3921,38,0.6553,73,0.631,70,0.4725,47,0.5176,70,0.6553,82,0.6228,74
2009-08-27,0.3385,28,0.3686,31,0.6504,72,0.6629,76,0.5217,59,0.5346,72,0.6315,77,0.5897,62
2009-08-21,0.3271,27,0.2914,13,0.6442,71,0.6201,66,0.5484,65,0.5557,76,0.6379,79,0.5892,62
2009-08-17,0.3023,22,0.3635,30,0.6809,78,0.6166,66,0.5602,69,0.5727,78,0.6413,79,0.6046,68
2009-08-11,0.4107,46,0.5623,77,0.6426,71,0.9411,95,0.5619,69,0.5737,78,0.6154,73,0.6393,78
2009-08-05,0.3144,24,0.4324,49,0.6736,77,0.8119,91,0.5621,69,0.5681,77,0.6294,77,0.637,77
2009-07-30,0.2282,10,0.3122,17,0.6693,76,0.8707,94,0.5743,72,0.5722,78,0.6143,73,0.6501,79
2009-07-24,0.3474,31,0.4556,55,0.6292,67,0.7808,89,0.5729,72,0.5772,79,0.6358,78,0.6404,78
2009-07-20,0.5764,73,0.7493,92,0.6342,68,0.7116,82,0.6568,84,0.6206,82,0.643,80,0.606,69
2009-06-29,0.4965,62,0.3201,19,0.7077,83,0.663,76,0.665,86,0.6286,83,0.7077,90,0.6463,78
2009-06-22,0.3542,33,0.4114,44,0.6497,72,0.6732,77,0.6749,86,0.6592,87,0.6497,81,0.6167,72
2009-06-16,0.491,61,0.4397,51,0.6913,80,0.768,88,0.6829,86,0.6955,89,0.6913,87,0.6381,77
2009-06-10,0.5898,75,0.4639,57,0.7049,82,0.9103,95,0.7011,88,0.7179,92,0.5758,59,0.6692,81
2009-06-04,0.5603,71,0.4639,57,0.7119,83,0.6941,80,0.7052,89,0.7227,92,0.6764,85,0.6899,84
2009-05-29,0.3572,34,0.5261,70,0.6506,73,0.6563,74,0.7093,89,0.7319,94,0.6506,81,0.6345,77
2009-05-22,0.3521,32,0.4892,64,0.703,82,0.6753,77,0.7395,93,0.7442,95,0.703,89,0.6524,79
2009-05-18,0.4786,59,0.414,44,0.7216,85,0.6508,73,0.7732,96,0.7669,96,0.6733,85,0.6014,67
2009-05-12,0.6891,84,0.5321,71,0.648,72,0.7056,81,0.7896,96,0.803,97,0.648,81,0.676,82
2009-05-06,0.2854,18,0.4619,57,0.5943,57,0.7936,90,0.8029,97,0.8266,97,0.6453,80,0.7086,87
2009-04-30,0.2771,17,0.4379,51,0.7485,88,0.6974,80,0.8137,97,0.8382,97,0.6735,85,0.6223,74
2009-04-13,0.8095,92,0.6839,88,0.7141,83,0.8118,91,0.9547,98,0.9118,98,0.7141,90,0.756,91
2009-03-27,0.4815,60,0.5095,68,0.7073,82,1.0472,96,1.0708,100,1.0267,100,0.7073,90,0.7104,87
2009-03-23,0.4771,59,0.5516,75,0.6496,72,0.9606,96,1.079,100,1.0284,100,0.6496,81,0.8192,95
2009-03-17,0.5331,68,0.7141,90,0.689,80,0.9683,96,1.0827,100,1.0347,100,0.689,86,0.7707,93
2009-03-11,1.0339,97,0.8551,96,0.7358,86,0.9458,95,1.0861,100,1.0387,100,0.7358,92,0.8149,95
2009-03-05,1.3094,99,0.9828,98,0.8378,94,0.8406,93,1.0893,100,1.0356,100,0.7802,96,0.7798,94
2009-02-25,0.6213,79,0.6712,87,0.8676,95,0.7709,89,1.0546,100,1.0198,100,0.8676,98,0.7709,93
2009-02-13,0.3223,26,0.3916,37,0.801,91,0.805,91,1.0521,99,1.0116,99,0.801,96,0.7658,92
2009-02-09,0.6021,77,0.5649,77,0.8394,94,0.8811,94,1.0572,100,1.0128,100,0.7639,95,0.7866,94
2009-01-07,0.9216,96,0.8375,95,1.0157,99,0.9629,96,1.0139,99,0.9817,99,1.0157,100,0.9629,96
2008-11-07,1.1431,98,1.0851,99,1.0724,99,0.8681,94,0.8923,97,0.8168,97,1.0724,100,0.9777,96
2008-10-03,1.3641,100,1.1097,99,0.8309,93,0.8367,93,0.5426,64,0.5248,71,0.7269,91,0.7263,89
2008-09-29,0.8152,92,0.6723,87,1.02,99,0.9209,95,0.4745,47,0.4693,54,0.8402,98,0.7883,94
2008-09-23,0.7515,89,0.843,96,0.8052,92,0.7305,84,0.4526,39,0.4602,49,0.7483,93,0.6804,83
2008-09-17,0.6278,79,0.7393,91,0.6405,70,0.7169,83,0.4417,34,0.4422,39,0.6405,79,0.6612,81
2008-09-11,0.5041,64,0.6338,84,0.6986,81,0.7268,84,0.4487,37,0.4279,31,0.6462,80,0.6665,81
2008-09-05,0.1979,6,0.4701,59,0.896,96,0.5983,61,0.4431,35,0.4246,28,0.6149,73,0.5983,66
2008-08-29,0.3455,31,0.3254,20,0.8254,93,0.6017,62,0.4495,38,0.4277,31,0.6127,72,0.6017,67
2008-08-25,0.5163,66,0.4207,46,0.5228,39,0.6126,64,0.4517,38,0.4329,33,0.5459,47,0.6126,71
2008-08-19,0.5657,72,0.4235,47,0.5914,57,0.6119,64,0.4442,35,0.4302,32,0.5826,62,0.6119,71
2008-08-13,0.6121,78,0.4982,66,0.5801,55,0.6112,64,0.4405,34,0.4284,31,0.5451,47,0.6112,70
2008-08-07,0.6192,78,0.5217,70,0.7199,84,0.5855,55,0.4254,27,0.4278,31,0.613,72,0.5855,61
2008-08-01,0.7985,91,0.577,78,1.0781,99,0.5782,53,0.4233,26,0.4267,30,0.5762,59,0.5782,57
2008-07-28,0.6923,85,0.5362,72,0.5984,59,0.5469,43,0.433,31,0.4264,30,0.5781,60,0.5469,46
2008-07-22,0.4187,48,0.4131,44,0.6268,67,0.5572,46,0.4074,15,0.4168,27,0.5809,61,0.5572,50
2008-06-30,0.6312,80,0.5896,80,0.5395,44,0.5198,36,0.4289,28,0.4377,36,0.5395,45,0.5389,43
2008-06-24,0.5977,76,0.5515,75,0.4836,25,0.5123,35,0.4255,27,0.4361,35,0.4836,24,0.4612,16
2008-06-18,0.2619,15,0.2868,12,0.4158,5,0.4822,25,0.4095,16,0.426,30,0.4158,4,0.4625,16
2008-06-12,0.2795,17,0.4072,42,0.4549,15,0.4658,19,0.4116,17,0.437,36,0.4549,13,0.4546,13
2008-05-30,0.3832,39,0.398,40,0.4456,11,0.5877,56,0.409,16,0.4317,33,0.4456,9,0.4487,10
2008-05-21,0.186,6,0.3019,15,0.4374,9,0.481,24,0.4029,13,0.4292,32,0.4374,7,0.4509,11
2008-04-22,0.3217,26,0.3612,28,0.3741,2,0.4411,9,0.4137,19,0.4572,47,0.4687,19,0.4685,19
2008-03-11,0.4368,51,0.581,79,0.4677,18,0.5597,47,0.4056,15,0.4559,46,0.468,18,0.4527,12
2008-03-05,0.406,45,0.4301,49,0.4867,26,0.7093,82,0.3987,12,0.4463,42,0.4752,21,0.4618,16
2008-02-28,0.1736,4,0.3285,21,0.4512,13,0.4838,25,0.4141,19,0.4447,41,0.4485,10,0.4523,12
2008-02-22,0.2747,17,0.4183,45,0.4897,27,0.5794,54,0.4147,19,0.4445,40,0.4384,7,0.4617,16
2008-02-15,0.3574,34,0.4874,63,0.4531,14,0.4818,25,0.4202,24,0.4489,43,0.4593,15,0.4614,16
2008-02-11,0.7264,87,0.4973,65,0.4813,24,0.6275,69,0.4228,26,0.4566,47,0.4565,14,0.4833,25
2008-01-15,0.3743,37,0.5017,66,0.5097,35,0.4911,28,0.4223,26,0.4736,57,0.5097,36,0.4969,30
2008-01-09,0.513,65,0.5091,68,0.5093,35,0.512,34,0.4189,23,0.4723,56,0.5093,36,0.5007,32
2008-01-02,0.2813,18,0.3398,23,0.5226,39,0.5033,32,0.4088,16,0.4627,50,0.5226,40,0.4779,23
2007-12-26,0.3484,32,0.5648,77,0.4738,20,0.6071,63,0.4174,22,0.4652,52,0.4403,7,0.5039,33
2007-12-19,0.304,22,0.5087,68,0.4947,30,0.5654,49,0.4224,26,0.4627,50,0.4947,30,0.5145,37
2007-12-13,0.1745,5,0.3116,17,0.5732,53,0.5666,49,0.4181,22,0.4541,45,0.505,35,0.523,39
2007-12-07,0.2351,10,0.2691,8,0.5316,42,0.557,46,0.4299,28,0.4615,49,0.5306,43,0.5328,42
2007-12-03,0.1664,4,0.3016,15,0.5243,40,0.5402,41,0.4289,28,0.4601,49,0.5395,45,0.5092,35
2007-11-27,0.2384,11,0.3462,25,0.5106,35,0.5902,57,0.4287,28,0.4587,48,0.5116,37,0.5069,34
2007-11-20,0.4953,62,0.4326,50,0.4968,31,0.5728,51,0.4324,30,0.4553,46,0.5183,39,0.5231,39
2007-11-14,0.5504,70,0.5951,80,0.5755,53,0.5328,40,0.4318,30,0.4536,45,0.5329,43,0.496,30
2007-11-08,0.4382,51,0.5829,79,0.5346,43,0.5343,40,0.4206,24,0.4454,41,0.5024,33,0.5064,34
2007-11-02,0.355,33,0.3955,39,0.5164,37,0.5907,57,0.425,27,0.4324,33,0.5211,40,0.5412,44
2007-10-29,0.3892,41,0.3727,32,0.6601,74,0.7204,83,0.4216,25,0.427,30,0.5189,39,0.5101,35
2007-10-23,0.4672,57,0.4505,54,0.4944,30,0.6152,65,0.4322,30,0.4396,38,0.4764,22,0.5152,37
2007-10-17,0.3903,41,0.3595,28,0.4932,28,0.5281,38,0.4359,32,0.4428,40,0.4932,28,0.5169,38
2007-10-10,0.2467,12,0.3171,18,0.5274,40,0.5285,38,0.4281,28,0.4389,37,0.5274,42,0.5265,40
2007-10-03,0.5981,76,0.5149,69,0.5096,35,0.4267,7,0.4275,28,0.4386,37,0.5096,36,0.5264,40
2007-09-27,0.5933,75,0.4629,57,0.5192,38,0.5387,41,0.4268,28,0.4339,34,0.5192,39,0.5523,48
2007-09-05,0.2897,19,0.3443,25,0.7843,90,0.6919,79,0.4005,13,0.4323,33,0.5766,59,0.5931,64
2007-08-29,0.3783,38,0.4235,47,0.61,62,0.5743,52,0.4086,16,0.4375,36,0.5471,48,0.5743,57
2007-08-23,0.4081,46,0.552,75,0.6185,64,0.6591,75,0.4119,18,0.4352,35,0.5173,38,0.573,56
2007-08-17,0.4068,45,0.6511,86,0.6714,76,0.5443,43,0.4097,17,0.4365,36,0.5835,62,0.5443,45
2007-08-13,0.4607,55,0.6121,83,0.55,47,0.5531,45,0.4051,15,0.4225,28,0.5074,36,0.5531,48
2007-07-24,0.3782,38,0.4827,62,0.5105,35,0.4894,27,0.3846,6,0.3884,16,0.4627,16,0.4735,21
2007-07-18,0.2154,8,0.3223,19,0.4783,22,0.4759,22,0.386,7,0.3839,13,0.4783,22,0.4879,27
2007-06-26,0.5228,67,0.5156,69,0.5399,44,0.6056,63,0.3859,7,0.3895,17,0.5407,45,0.6056,68
2007-06-19,0.4703,57,0.4499,54,0.6888,79,0.5933,59,0.3852,6,0.3874,15,0.4974,31,0.5933,64
2007-06-13,0.1649,4,0.1862,1,0.6801,78,0.6562,74,0.373,2,0.378,11,0.5622,53,0.6562,80
2007-06-07,0.2933,20,0.2002,1,0.6411,70,0.6488,73,0.3895,9,0.3834,13,0.5458,47,0.5324,42
2007-06-01,0.3228,26,0.2682,8,0.5713,52,0.6051,62,0.3895,9,0.3834,13,0.5628,53,0.6051,68
2007-05-25,0.2292,10,0.2858,12,0.6191,64,0.6111,64,0.3853,6,0.3838,13,0.5461,47,0.5555,49
2007-05-21,0.4968,62,0.3057,16,0.6388,70,0.5904,57,0.3841,6,0.3837,13,0.61,71,0.5584,50
2007-05-15,0.4776,59,0.2773,10,0.5675,51,0.5617,48,0.4064,15,0.3929,19,0.5439,46,0.5585,50
2007-05-09,0.4408,52,0.4771,61,0.5441,45,0.5864,56,0.3947,10,0.3909,18,0.5306,43,0.5419,44
2007-05-03,0.5758,73,0.6159,83,0.5462,46,0.5737,52,0.3955,10,0.3911,18,0.5423,46,0.5737,57
2007-04-27,0.4034,44,0.4513,54,0.6509,73,0.5174,36,0.3843,6,0.3761,10,0.5065,35,0.5174,38
2007-04-23,0.2008,7,0.2745,9,0.6421,71,0.6196,66,0.3727,2,0.3662,7,0.5239,41,0.5432,45
2007-04-17,0.2618,15,0.2863,12,0.6091,62,0.5998,61,0.3699,1,0.3651,6,0.6091,70,0.5998,66
2007-04-11,0.2863,19,0.3151,17,0.637,69,0.6347,70,0.3841,6,0.3706,8,0.637,78,0.6347,77
2007-04-04,0.2368,11,0.3177,18,0.6808,78,0.6179,66,0.3827,5,0.3728,9,0.6119,71,0.6179,72
2007-03-29,0.3499,32,0.3296,21,0.64,70,0.6587,75,0.398,12,0.3792,11,0.6523,82,0.6587,80
2007-03-23,0.3962,43,0.4771,61,0.6815,78,0.6596,75,0.3995,12,0.3811,12,0.5841,62,0.6596,80
2007-03-19,0.414,47,0.5006,66,0.6365,69,0.6743,77,0.4033,14,0.3834,13,0.6635,83,0.6743,82
2007-03-13,0.5885,75,0.4478,54,0.6109,62,0.6238,68,0.4022,13,0.3766,10,0.6365,78,0.6238,74
2007-03-07,0.5476,70,0.4257,47,0.7078,83,0.5859,56,0.4022,13,0.3727,9,0.6218,75,0.5859,61
2007-03-01,0.3408,30,0.4004,41,1.0616,99,0.6119,64,0.3929,10,0.3705,8,0.5897,64,0.6119,71
2007-02-23,0.3343,28,0.3786,34,0.6845,79,0.5792,53,0.3911,9,0.3652,6,0.5933,65,0.5792,59
2007-02-16,0.4551,54,0.4297,49,0.6595,74,0.5945,59,0.3877,8,0.3593,5,0.5905,64,0.5785,57
2006-12-20,0.3112,24,0.3328,22,0.5087,35,0.3756,1,0.3815,5,0.3432,1,0.5087,36,0.5022,32
2006-12-14,0.5009,63,0.3255,20,0.5046,33,0.456,15,0.3804,5,0.3481,2,0.5046,34,0.4875,27
2006-12-08,0.4962,62,0.3003,15,0.4896,27,0.7801,89,0.4006,13,0.3542,3,0.4896,27,0.5358,43
2006-12-01,0.1908,6,0.218,2,0.4611,17,0.4934,28,0.4082,16,0.3782,11,0.4611,15,0.5168,38
2006-11-27,0.5884,75,0.4319,49,0.5134,36,0.4504,13,0.4163,21,0.3834,13,0.5134,37,0.4935,28
2006-11-20,0.5848,74,0.454,55,0.4909,28,0.4874,27,0.416,20,0.386,15,0.4909,28,0.4829,25
2006-09-05,0.3134,24,0.2906,13,0.5673,51,0.7172,83,0.383,6,0.3625,5,0.5467,47,0.5646,53
2006-07-07,0.4638,56,0.4227,47,0.5194,38,0.5264,38,0.4644,44,0.4204,28,0.5468,47,0.5363,43
2006-06-06,0.1864,6,0.3397,23,0.5694,52,0.5437,42,0.4278,28,0.3944,19,0.5301,43,0.5258,40
2006-05-31,0.5076,64,0.3469,25,0.5461,46,0.5174,36,0.4283,28,0.3918,18,0.5357,44,0.553,48
2006-05-23,0.4759,57,0.3649,30,0.5726,53,0.6217,67,0.4277,28,0.3905,18,0.545,47,0.5647,53
2006-05-15,0.3256,27,0.3661,31,0.5428,45,0.6936,80,0.4351,31,0.3969,20,0.5239,41,0.5274,41
2006-05-09,0.1462,2,0.2951,14,0.5285,41,0.6157,65,0.4294,28,0.3965,20,0.5373,45,0.5248,40
2006-05-03,0.1674,4,0.3057,16,0.5607,49,0.6165,66,0.435,31,0.3997,22,0.5262,42,0.5216,39
2006-04-27,0.2061,7,0.2402,4,0.6383,69,0.7232,84,0.4581,41,0.4108,25,0.5044,34,0.5232,40
2006-04-21,0.1397,2,0.1907,1,0.6416,70,0.6656,76,0.4678,45,0.4206,28,0.5413,46,0.5435,45
2006-04-17,0.5101,64,0.4192,45,0.6112,62,0.6269,68,0.4911,51,0.4449,41,0.5692,56,0.569,54
2006-04-10,0.453,54,0.3665,31,0.5273,40,0.5754,52,0.511,56,0.4545,45,0.57,56,0.5301,41
2006-04-04,0.0841,1,0.219,2,0.579,54,0.579,53,0.5147,57,0.4607,49,0.5658,55,0.5286,41
2006-03-29,0.1902,6,0.2723,9,0.5549,48,0.5264,38,0.5166,57,0.4633,51,0.5549,50,0.4913,28
2006-03-23,0.205,7,0.2719,9,0.6325,68,0.5451,43,0.5175,57,0.4653,52,0.6173,74,0.5774,57
2006-03-17,0.3052,22,0.3706,32,0.6249,66,0.6047,62,0.5261,60,0.4763,57,0.5818,61,0.5448,45
2006-03-13,0.331,28,0.5612,76,0.6486,72,0.581,54,0.5326,62,0.4792,60,0.6093,71,0.5741,57
2006-03-07,0.6361,80,0.5729,78,0.5968,59,0.6362,71,0.5282,60,0.4733,56,0.6078,70,0.5964,65
2006-03-01,0.505,64,0.3552,28,0.6283,67,0.5951,60,0.5167,57,0.4615,49,0.6031,68,0.575,57
2006-02-23,0.71,86,0.5228,70,0.6634,75,0.7149,82,0.5081,55,0.4606,49,0.6007,68,0.5848,60
2006-02-16,0.8594,94,0.6065,82,0.6024,60,0.7583,87,0.5162,57,0.4667,52,0.5979,67,0.5907,63
2006-02-10,0.6192,78,0.5388,72,0.6563,74,0.6504,73,0.4891,51,0.4538,45,0.5819,61,0.5672,54
2006-02-06,0.6481,81,0.5241,70,0.4798,23,0.5845,55,0.4856,50,0.4479,42,0.5647,54,0.5667,53
2006-01-31,0.3515,32,0.4044,42,0.4858,26,0.5793,53,0.4728,47,0.4419,39,0.5609,52,0.5518,48
2006-01-25,0.3077,23,0.3424,24,0.6374,69,0.5605,47,0.4733,47,0.4471,42,0.5258,41,0.5572,50
2006-01-19,0.2702,16,0.27,8,0.6969,81,0.5056,32,0.4737,47,0.4473,42,0.5714,57,0.5919,64
2006-01-12,0.2139,8,0.2415,4,0.6634,75,0.5362,40,0.4713,46,0.4479,42,0.6132,72,0.582,59
2006-01-06,0.3725,37,0.3601,28,0.6494,72,0.6828,78,0.4744,47,0.4511,44,0.5957,66,0.6012,67
2005-12-30,0.395,43,0.4625,57,0.5578,49,0.6489,73,0.4747,48,0.4535,45,0.5578,51,0.6189,73
2005-12-23,0.3688,36,0.4305,49,0.5665,51,0.5062,32,0.4713,46,0.4511,44,0.5665,55,0.5683,54
2005-12-19,0.4761,57,0.4008,41,0.6272,67,0.6067,63,0.4923,51,0.4629,50,0.6121,72,0.6112,70
2005-12-13,0.306,22,0.3771,33,0.652,73,0.6623,75,0.4918,51,0.4592,48,0.6127,72,0.6123,71
2005-12-07,0.2086,7,0.2777,10,0.6711,76,0.6587,75,0.4912,51,0.4576,47,0.6134,72,0.6188,73
2005-12-01,0.3881,40,0.3461,25,0.7257,85,0.6935,80,0.4997,53,0.4634,51,0.627,76,0.6115,71
2005-11-25,0.6575,82,0.4644,57,0.6621,75,0.5865,56,0.5252,60,0.472,56,0.6468,80,0.646,78
2005-11-18,0.3906,41,0.3921,38,0.7458,87,0.6722,77,0.539,63,0.4766,57,0.6979,88,0.6978,85
2005-11-14,0.351,32,0.4059,42,0.6473,72,0.8389,93,0.5391,63,0.4821,61,0.7431,93,0.6623,81
2005-11-08,0.7091,86,0.5254,70,0.7012,81,0.769,88,0.5537,67,0.4945,66,0.7078,90,0.7091,87
2005-11-02,0.73,87,0.5859,79,0.7185,84,0.702,81,0.5581,69,0.5015,67,0.7039,89,0.705,86
2005-10-27,0.7371,88,0.7091,90,0.7709,89,0.7061,81,0.5435,64,0.4955,66,0.7689,95,0.7542,91
2005-10-21,0.729,87,0.7303,91,0.7878,91,0.7851,90,0.5566,68,0.5035,67,0.7725,95,0.7851,94
2005-10-14,0.8685,94,0.642,85,0.7727,89,0.6917,79,0.5635,70,0.4944,66,0.7106,90,0.6657,81
2005-10-10,0.3032,22,0.4561,55,0.7164,84,0.7208,83,0.5684,71,0.507,68,0.7164,90,0.623,74
2005-10-04,0.2548,13,0.2842,11,0.6669,75,0.6462,72,0.5681,71,0.504,67,0.6637,83,0.5932,64
2005-09-28,0.4997,63,0.5374,72,0.656,74,0.6305,69,0.5708,71,0.5088,68,0.6083,70,0.5843,60
2005-09-22,0.5596,71,0.5074,67,0.6338,68,0.5768,53,0.5808,74,0.5154,69,0.6007,68,0.5898,62
2005-09-16,0.1807,5,0.2626,7,0.602,60,0.6394,71,0.5736,72,0.5123,69,0.6074,70,0.5595,51
2005-09-12,0.3112,24,0.3292,21,0.609,62,0.627,68,0.5874,75,0.5182,70,0.611,71,0.5641,52
2005-09-06,0.3695,36,0.3707,32,0.6194,64,0.5581,47,0.598,76,0.5489,75,0.5847,62,0.5799,59
2005-08-30,0.5017,63,0.4698,59,0.6194,64,0.6308,69,0.6339,82,0.5778,79,0.608,70,0.5934,64
2005-08-24,0.5325,68,0.4066,42,0.6055,61,0.5788,53,0.6361,82,0.586,79,0.6075,70,0.5868,61
2005-08-18,0.3219,26,0.3188,19,0.6369,69,0.6194,66,0.6953,88,0.6978,89,0.6597,83,0.6695,81
2005-08-12,0.2653,15,0.3515,27,0.5279,41,0.5826,54,0.7176,90,0.71,90,0.6359,78,0.6228,74
2005-08-08,0.5242,67,0.5035,67,0.6151,63,0.5856,55,0.7188,90,0.7096,90,0.6024,68,0.6052,68
2005-08-02,0.5393,69,0.4826,62,0.6233,65,0.595,59,0.7215,91,0.7127,91,0.6003,68,0.6062,69
2005-07-27,0.2393,11,0.3486,26,0.6801,78,0.6334,70,0.7246,91,0.715,91,0.6175,74,0.6229,74
2005-07-21,0.2393,11,0.3618,28,0.6225,65,0.6523,73,0.7232,91,0.7141,91,0.6037,69,0.628,75
2005-07-15,0.2812,18,0.3475,26,0.5735,53,0.6664,76,0.7232,91,0.7161,91,0.5962,66,0.5998,66
2005-07-11,0.3096,23,0.3954,39,0.5982,59,0.5719,51,0.74,94,0.7296,93,0.5752,57,0.5719,56
2005-07-05,0.7503,88,0.5996,81,0.5876,56,0.5603,47,0.7424,94,0.7308,93,0.5553,50,0.5603,51
2005-06-28,0.753,89,0.5296,71,0.5998,59,0.6203,67,0.7452,95,0.7434,95,0.6225,75,0.5862,61
2005-06-22,0.4061,45,0.3406,24,0.6138,63,0.6152,65,0.731,92,0.7357,94,0.582,61,0.569,54
2005-06-16,0.417,47,0.4701,59,0.7008,81,0.6503,73,0.7311,92,0.741,94,0.6155,73,0.6163,72
2005-06-10,0.7878,91,0.559,76,0.6814,78,0.649,73,0.7328,92,0.741,94,0.5986,67,0.6153,72
2005-06-06,0.7324,88,0.5603,76,0.6729,77,0.6548,74,0.7198,90,0.7423,95,0.6416,79,0.6104,70
2005-05-31,0.7268,87,0.6265,84,0.7556,88,0.6819,78,0.7245,91,0.752,96,0.7337,92,0.6992,86
2005-05-24,0.6174,78,0.6794,88,0.9869,98,0.7128,82,0.7582,95,0.7661,96,0.7673,95,0.7128,88
2005-05-18,0.637,80,0.6957,89,0.6784,78,0.7267,84,0.7652,96,0.7642,96,0.7681,95,0.7267,89
2005-05-12,0.5585,71,0.5431,73,0.7205,84,0.819,92,0.7537,95,0.7565,96,0.7569,94,0.7492,91
2005-05-06,0.6757,83,0.6205,83,0.7959,91,0.6902,79,0.746,95,0.7498,95,0.7871,96,0.7253,89
2005-05-02,0.9707,96,0.6733,88,0.761,88,0.8617,94,0.7412,94,0.7487,95,0.7468,93,0.7532,91
2005-04-26,1.0685,97,0.7862,93,0.7379,86,0.726,84,0.7288,92,0.739,94,0.7483,93,0.7597,92
2005-04-20,0.8704,94,0.7758,93,0.7658,89,0.7638,88,0.7228,91,0.7407,94,0.7463,93,0.762,92
2005-04-13,0.3664,35,0.4772,61,0.7905,91,0.7556,87,0.7084,89,0.731,93,0.7505,94,0.6855,84
2005-04-07,0.5973,76,0.5676,77,0.8176,93,0.8327,92,0.7142,89,0.7371,94,0.6975,88,0.653,79
2005-04-01,0.6539,81,0.6157,83,0.8397,94,0.848,94,0.7451,95,0.7562,96,0.6745,85,0.7142,88
2005-03-28,0.6854,84,0.5169,69,0.7961,91,0.7891,90,0.7396,93,0.754,96,0.7434,93,0.7007,86
2005-03-21,0.7714,90,0.8656,96,0.8848,96,0.7835,90,0.7415,94,0.7554,96,0.7209,91,0.7391,90
2005-03-15,1.0249,97,1.0107,99,0.7441,87,0.8119,91,0.7507,95,0.7498,95,0.7445,93,0.758,92
2005-03-09,0.669,82,0.7307,91,1.7361,100,0.7184,83,0.7143,89,0.7223,92,0.7395,92,0.7092,87
2005-03-07,1.3687,100,1.7226,100,0.7551,88,0.7231,84,0.717,90,0.7211,92,0.7699,95,0.7055,86