File: data/iv_percentiles_symbols/TGA.csv
percentiles,hv10,hv120,hv150,hv180,hv20,hv30,hv60,hv90,ivcall10,ivcall1080,ivcall120,ivcall150,ivcall180,ivcall20,ivcall270,ivcall30,ivcall360,ivcall60,ivcall720,ivcall90,ivmean10,ivmean1080,ivmean120,ivmean150,ivmean180,ivmean20,ivmean270,ivmean30,ivmean360,ivmean60,ivmean720,ivmean90,ivput10,ivput1080,ivput120,ivput150,ivput180,ivput20,ivput270,ivput30,ivput360,ivput60,ivput720,ivput90,phv10,phv120,phv150,phv180,phv20,phv30,phv60,phv90
0,0.12348,0.344465,0.36467,0.371295,0.19155,0.22576,0.286145,0.318575,0.3732,0.38072,0.378515,0.38214,0.379875,0.373785,0.38072,0.3747,0.38072,0.37766,0.38072,0.378515,0.39782,0.40128,0.40034,0.40132,0.40032,0.39782,0.40128,0.3969,0.40128,0.40074,0.40128,0.40022,0.391266,0.399744,0.401305,0.402293,0.400205,0.391561,0.399744,0.391561,0.399744,0.398191,0.399744,0.399861,0.205155,0.3365,0.338495,0.346285,0.23849,0.259795,0.295315,0.33149
1,0.15076,0.36159,0.37059,0.37488,0.21319,0.24528,0.3086,0.33607,0.38808,0.39546,0.4,0.3976,0.39643,0.38999,0.39546,0.39039,0.39546,0.3931,0.39546,0.39858,0.40964,0.41092,0.41596,0.41462,0.41404,0.41012,0.41092,0.41052,0.41092,0.41182,0.41092,0.41436,0.4047,0.414622,0.415496,0.415128,0.414854,0.405022,0.414622,0.406688,0.414622,0.411644,0.414622,0.415744,0.22022,0.34159,0.34745,0.3521,0.25275,0.27324,0.31069,0.3342
2,0.16439,0.367285,0.3743,0.377285,0.228585,0.259455,0.318885,0.34677,0.3979,0.40989,0.41574,0.41279,0.41209,0.3979,0.40989,0.39988,0.40989,0.408795,0.40989,0.414485,0.41492,0.42342,0.42686,0.42548,0.42238,0.41524,0.42342,0.4167,0.42342,0.42036,0.42342,0.42544,0.411566,0.423666,0.4246,0.423183,0.423949,0.412749,0.423666,0.4142,0.423666,0.4195,0.423666,0.422883,0.235625,0.344,0.35337,0.3562,0.2639,0.283585,0.3151,0.336785
3,0.17448,0.37218,0.37788,0.38,0.24682,0.27478,0.3255,0.3583,0.41044,0.42042,0.4252,0.42518,0.4226,0.41116,0.42042,0.41164,0.42042,0.41556,0.42042,0.4235,0.42388,0.43074,0.43168,0.43088,0.4305,0.42408,0.43074,0.4242,0.43074,0.42646,0.43074,0.4289,0.418688,0.430976,0.4285,0.428588,0.428832,0.419744,0.430976,0.420844,0.430976,0.423488,0.430976,0.425476,0.24614,0.34608,0.3566,0.35894,0.27126,0.2913,0.32232,0.3394
4,0.185325,0.376525,0.3806,0.382925,0.25365,0.28725,0.333275,0.3617,0.418725,0.43115,0.4301,0.432175,0.431925,0.419575,0.43115,0.420475,0.43115,0.423025,0.43115,0.428025,0.4292,0.436,0.4352,0.4372,0.4355,0.4292,0.436,0.43,0.436,0.4303,0.436,0.4331,0.42251,0.4371,0.43331,0.4357,0.435605,0.422705,0.4371,0.423715,0.4371,0.427715,0.4371,0.4312,0.25335,0.349,0.3591,0.36275,0.2794,0.297075,0.327125,0.3419
5,0.19797,0.37827,0.3832,0.3853,0.26174,0.29652,0.33797,0.36487,0.42569,0.4366,0.43368,0.4364,0.4374,0.42579,0.4366,0.42609,0.4366,0.42707,0.4366,0.43007,0.43392,0.4405,0.4375,0.43946,0.44006,0.43392,0.4405,0.43376,0.4405,0.4339,0.4405,0.4361,0.425532,0.4402,0.436798,0.438132,0.439166,0.426328,0.4402,0.42833,0.4402,0.4326,0.4402,0.4358,0.26244,0.35257,0.36047,0.36567,0.2847,0.3009,0.33187,0.34497
6,0.20906,0.3804,0.3866,0.387365,0.270265,0.304065,0.342495,0.36733,0.429055,0.4403,0.4374,0.439855,0.441065,0.429265,0.4403,0.42951,0.4403,0.4309,0.4403,0.435575,0.43754,0.44332,0.43988,0.4414,0.4425,0.4378,0.44332,0.43752,0.44332,0.43602,0.44332,0.43908,0.432627,0.442408,0.4408,0.441127,0.441862,0.433127,0.442408,0.435627,0.442408,0.436181,0.442408,0.439554,0.26806,0.3551,0.3638,0.36846,0.2891,0.30763,0.33606,0.3472
7,0.21756,0.3827,0.3893,0.3891,0.27872,0.3097,0.34882,0.37066,0.4342,0.44426,0.44176,0.44342,0.44462,0.4342,0.44426,0.43522,0.44426,0.43556,0.44426,0.44082,0.44266,0.44566,0.44368,0.4439,0.44468,0.44266,0.44566,0.44258,0.44566,0.43978,0.44566,0.44378,0.437088,0.445088,0.4432,0.4434,0.444388,0.437588,0.445088,0.438752,0.445088,0.4399,0.445088,0.4425,0.27186,0.3578,0.36596,0.37246,0.2939,0.31342,0.34028,0.3496
8,0.227765,0.3851,0.39181,0.3923,0.28611,0.31573,0.35352,0.373855,0.440285,0.44687,0.44557,0.4453,0.446785,0.440285,0.44687,0.4407,0.44687,0.441,0.44687,0.444485,0.44628,0.44758,0.4469,0.4468,0.44734,0.44628,0.44758,0.4462,0.44758,0.44516,0.44758,0.44724,0.441345,0.4477,0.445249,0.445649,0.4471,0.442398,0.4477,0.443049,0.4477,0.444,0.4477,0.444649,0.27681,0.3614,0.3692,0.375455,0.298755,0.318055,0.3439,0.351955
9,0.2352,0.388,0.3935,0.3956,0.29285,0.32145,0.3569,0.37725,0.4437,0.44895,0.4478,0.44815,0.44945,0.4437,0.44895,0.4443,0.44895,0.4443,0.44895,0.44655,0.4493,0.4504,0.4496,0.4491,0.4498,0.4493,0.4504,0.449,0.4504,0.4487,0.4504,0.4504,0.44432,0.45001,0.44682,0.44821,0.44952,0.44461,0.45001,0.44502,0.45001,0.44601,0.45001,0.447,0.2805,0.364,0.37295,0.3776,0.30385,0.3226,0.3481,0.3536
10,0.24229,0.3893,0.395445,0.3979,0.29719,0.32609,0.3604,0.3808,0.445915,0.452,0.451315,0.450515,0.451915,0.446,0.452,0.4461,0.452,0.4461,0.452,0.44902,0.454,0.45262,0.45236,0.45096,0.45202,0.45352,0.45262,0.45316,0.45262,0.45266,0.45262,0.45322,0.446942,0.452142,0.4492,0.4509,0.4522,0.447671,0.452142,0.4484,0.452142,0.448671,0.452142,0.449413,0.285245,0.366735,0.375745,0.3796,0.30959,0.32747,0.350845,0.3557
11,0.2498,0.39104,0.3973,0.40014,0.30268,0.33074,0.36414,0.38244,0.44846,0.45438,0.45336,0.45298,0.45438,0.44824,0.45438,0.44894,0.45438,0.44854,0.45438,0.45276,0.45712,0.4548,0.45494,0.45328,0.45472,0.45664,0.4548,0.4558,0.4548,0.45482,0.4548,0.45514,0.450032,0.4537,0.4514,0.453,0.453964,0.4505,0.4537,0.450932,0.4537,0.450832,0.4537,0.451832,0.2896,0.37014,0.37774,0.38204,0.3148,0.33112,0.3542,0.35784
12,0.25537,0.3928,0.399435,0.403035,0.3102,0.335335,0.367035,0.3837,0.45219,0.456445,0.456545,0.4559,0.456545,0.45219,0.456445,0.45219,0.456445,0.45278,0.456445,0.4549,0.45958,0.45688,0.4572,0.4567,0.4564,0.4591,0.45688,0.4581,0.45688,0.45808,0.45688,0.45748,0.452093,0.456493,0.454072,0.454793,0.456793,0.452393,0.456493,0.452493,0.456493,0.4533,0.456493,0.454286,0.29437,0.3744,0.3793,0.3842,0.320435,0.33707,0.357,0.359835
13,0.26163,0.3962,0.402,0.4048,0.3168,0.33846,0.37003,0.3855,0.45441,0.45891,0.45931,0.45792,0.45841,0.4544,0.45891,0.45431,0.45891,0.4547,0.45891,0.45761,0.46124,0.4588,0.45932,0.4595,0.4596,0.4608,0.4588,0.46044,0.4588,0.46044,0.4588,0.4601,0.453808,0.4586,0.457254,0.457208,0.458808,0.4543,0.4586,0.454254,0.4586,0.4552,0.4586,0.45777,0.2998,0.3782,0.38083,0.3857,0.32523,0.34153,0.35926,0.36186
14,0.26965,0.398525,0.4042,0.407725,0.320825,0.3415,0.371925,0.387525,0.45715,0.46125,0.4618,0.46095,0.461175,0.457275,0.46125,0.45715,0.46125,0.457575,0.46125,0.46025,0.4641,0.461,0.4612,0.4615,0.4622,0.4638,0.461,0.4632,0.461,0.4629,0.461,0.462,0.4567,0.46043,0.46003,0.46023,0.461215,0.457015,0.46043,0.456715,0.46043,0.45716,0.46043,0.4602,0.304575,0.3815,0.383,0.3875,0.331275,0.345425,0.361475,0.36565
15,0.27392,0.40014,0.406,0.40962,0.32522,0.34502,0.3745,0.38962,0.4605,0.46404,0.4641,0.46368,0.4632,0.46064,0.46404,0.4606,0.46404,0.4611,0.46404,0.46334,0.46606,0.46336,0.4639,0.4629,0.4638,0.46566,0.46336,0.46516,0.46336,0.4644,0.46336,0.46492,0.458828,0.463204,0.462376,0.462976,0.463528,0.459628,0.463204,0.4589,0.463204,0.459552,0.463204,0.462076,0.30994,0.38334,0.3857,0.3888,0.3355,0.3491,0.3645,0.3694
16,0.2799,0.402,0.4074,0.4116,0.329,0.350615,0.377315,0.39193,0.46471,0.466215,0.466105,0.465915,0.465405,0.465005,0.466215,0.4651,0.466215,0.464005,0.466215,0.46681,0.4682,0.46552,0.46592,0.46592,0.46632,0.46786,0.46552,0.46722,0.46552,0.46684,0.46552,0.46762,0.461474,0.465174,0.464837,0.4654,0.465874,0.461937,0.465174,0.4616,0.465174,0.461837,0.465174,0.4639,0.31533,0.3864,0.3874,0.3904,0.340115,0.352515,0.367215,0.3748
17,0.28611,0.40421,0.40952,0.4134,0.33347,0.35392,0.37921,0.3935,0.46857,0.46844,0.46807,0.46807,0.4677,0.46835,0.46844,0.4686,0.46844,0.468,0.46844,0.46881,0.4696,0.4672,0.46806,0.46868,0.46864,0.46944,0.4672,0.46898,0.4672,0.46888,0.4672,0.4692,0.4639,0.467196,0.4673,0.467898,0.4676,0.464392,0.467196,0.463998,0.467196,0.463896,0.467196,0.466,0.31861,0.3896,0.3891,0.39221,0.34471,0.35581,0.36991,0.3798
18,0.29,0.40661,0.4116,0.4148,0.339105,0.3581,0.381305,0.3957,0.470935,0.4701,0.470275,0.469635,0.469535,0.470835,0.4701,0.471175,0.4701,0.470935,0.4701,0.47107,0.4718,0.4701,0.47024,0.4707,0.4707,0.4717,0.4701,0.4712,0.4701,0.47074,0.4701,0.47054,0.466059,0.469859,0.470359,0.471159,0.470159,0.465959,0.469859,0.466618,0.469859,0.466059,0.469859,0.468859,0.323425,0.391105,0.3934,0.3944,0.3485,0.3593,0.3717,0.3831
19,0.2968,0.4096,0.4136,0.4161,0.3447,0.3608,0.3832,0.3975,0.4749,0.4729,0.473,0.4725,0.4717,0.4747,0.4729,0.4744,0.4729,0.4743,0.4729,0.4736,0.4737,0.4727,0.4727,0.4725,0.4729,0.4735,0.4727,0.4732,0.4727,0.4727,0.4727,0.4721,0.46898,0.47232,0.47336,0.47302,0.47262,0.4698,0.47232,0.47062,0.47232,0.46928,0.47232,0.4718,0.3274,0.393,0.3966,0.3969,0.3523,0.3628,0.3737,0.3857
20,0.301595,0.4125,0.414795,0.4169,0.348995,0.36577,0.385195,0.4003,0.47703,0.475965,0.475865,0.474495,0.4751,0.47703,0.475965,0.4766,0.475965,0.47673,0.475965,0.4764,0.4759,0.47666,0.47476,0.4743,0.47516,0.47596,0.47666,0.47542,0.47666,0.4746,0.47666,0.474,0.4736,0.474781,0.4757,0.475281,0.474781,0.4737,0.474781,0.4739,0.474781,0.472681,0.474781,0.473562,0.3312,0.3945,0.397895,0.3985,0.3554,0.366,0.376895,0.3883
21,0.3065,0.41399,0.41639,0.4183,0.3534,0.3699,0.3875,0.4017,0.47906,0.47873,0.47766,0.4783,0.47786,0.479,0.47873,0.479,0.47873,0.4786,0.47873,0.4786,0.47792,0.4787,0.47752,0.47674,0.47734,0.47794,0.4787,0.47694,0.4787,0.47582,0.4787,0.47574,0.476084,0.4772,0.4769,0.4769,0.477042,0.476342,0.4772,0.476842,0.4772,0.4758,0.4772,0.4758,0.3362,0.3959,0.39949,0.39989,0.35869,0.36898,0.37948,0.39009
22,0.311185,0.4164,0.418985,0.419785,0.35677,0.375085,0.38987,0.404385,0.481195,0.481495,0.4802,0.480495,0.4806,0.4809,0.481495,0.4808,0.481495,0.4805,0.481495,0.48029,0.47946,0.4804,0.4799,0.47998,0.4796,0.47946,0.4804,0.4793,0.4804,0.4783,0.4804,0.4774,0.479506,0.479606,0.479703,0.478609,0.479,0.48,0.479606,0.4801,0.479606,0.479209,0.479606,0.478603,0.339885,0.3972,0.401385,0.4021,0.362385,0.3713,0.382855,0.3936
23,0.31536,0.4182,0.42076,0.4207,0.36038,0.37818,0.3918,0.40678,0.48308,0.4836,0.4823,0.4825,0.48356,0.4829,0.4836,0.48286,0.4836,0.4826,0.4836,0.48212,0.4816,0.48254,0.48154,0.4821,0.48154,0.48154,0.48254,0.4816,0.48254,0.48124,0.48254,0.48174,0.481764,0.482256,0.4813,0.481328,0.480964,0.4822,0.482256,0.482564,0.482256,0.480964,0.482256,0.4807,0.34428,0.39848,0.40326,0.40904,0.36606,0.37378,0.3862,0.3957
24,0.3202,0.420075,0.4224,0.422175,0.36535,0.3819,0.394775,0.40965,0.48565,0.4863,0.484925,0.484625,0.485925,0.485225,0.4863,0.4853,0.4863,0.48465,0.4863,0.48435,0.4846,0.4853,0.4839,0.484,0.4841,0.4845,0.4853,0.4838,0.4853,0.4832,0.4853,0.4847,0.4841,0.484925,0.48365,0.483725,0.482725,0.484475,0.484925,0.4849,0.484925,0.482925,0.484925,0.482725,0.347175,0.4002,0.406775,0.412975,0.368075,0.377675,0.3892,0.399175
25,0.32382,0.4213,0.4254,0.424,0.36918,0.38497,0.39724,0.412,0.4878,0.48847,0.48739,0.4869,0.4875,0.4876,0.48847,0.4878,0.48847,0.4875,0.48847,0.48725,0.48632,0.4871,0.48636,0.486,0.4857,0.4866,0.4871,0.48626,0.4871,0.48566,0.4871,0.48632,0.486786,0.4869,0.486386,0.4856,0.485286,0.487486,0.4869,0.488758,0.4869,0.486186,0.4869,0.485386,0.3499,0.40207,0.4088,0.4159,0.37164,0.3807,0.39147,0.40174
26,0.32853,0.4232,0.4273,0.426,0.37293,0.388065,0.400865,0.4144,0.490155,0.49081,0.489655,0.489455,0.489555,0.48991,0.49081,0.4902,0.49081,0.490255,0.49081,0.489655,0.48834,0.4888,0.488,0.48752,0.48752,0.4885,0.4888,0.48832,0.4888,0.48796,0.4888,0.4887,0.490641,0.489194,0.489347,0.488288,0.488047,0.490894,0.489194,0.490694,0.489194,0.489047,0.489194,0.487647,0.35343,0.404465,0.4109,0.41813,0.375365,0.383365,0.3945,0.404565
27,0.33322,0.4249,0.42916,0.42856,0.37582,0.39076,0.4053,0.41686,0.4924,0.4922,0.4919,0.49142,0.4913,0.49196,0.4922,0.49232,0.4922,0.4922,0.4922,0.4919,0.4909,0.4905,0.49086,0.4889,0.48936,0.4911,0.4905,0.49058,0.4905,0.48958,0.4905,0.4909,0.4928,0.491708,0.4914,0.490332,0.4912,0.492808,0.491708,0.4928,0.491708,0.491008,0.491708,0.490508,0.35806,0.4067,0.4134,0.4219,0.37846,0.38626,0.3968,0.40646
28,0.338965,0.4261,0.430155,0.4299,0.380165,0.393865,0.40811,0.418855,0.493785,0.49397,0.493385,0.4928,0.4933,0.4936,0.49397,0.493685,0.49397,0.493685,0.49397,0.4934,0.49384,0.49324,0.493,0.49174,0.49154,0.49384,0.49324,0.49324,0.49324,0.49152,0.49324,0.49258,0.495369,0.494,0.493638,0.4932,0.493169,0.495569,0.494,0.495669,0.494,0.493438,0.494,0.492969,0.361855,0.408155,0.415655,0.425255,0.381455,0.39062,0.3993,0.408455
29,0.3424,0.4274,0.43105,0.4324,0.38365,0.3969,0.40995,0.4205,0.49665,0.4961,0.4952,0.4955,0.4956,0.4961,0.4961,0.496,0.4961,0.4955,0.4961,0.496,0.4968,0.4958,0.4946,0.4937,0.4939,0.4971,0.4958,0.4969,0.4958,0.4934,0.4958,0.4944,0.4989,0.4973,0.49633,0.4956,0.4962,0.49936,0.4973,0.49929,0.4973,0.496,0.4973,0.49573,0.36565,0.4103,0.4185,0.4273,0.3839,0.39405,0.40205,0.4108
30,0.347935,0.429545,0.4325,0.435145,0.3864,0.3998,0.4125,0.4222,0.50043,0.4988,0.498015,0.498415,0.4983,0.49939,0.4988,0.49893,0.4988,0.4983,0.4988,0.4977,0.50006,0.49776,0.4963,0.49672,0.49686,0.4994,0.49776,0.4994,0.49776,0.49656,0.49776,0.49766,0.501791,0.499691,0.4989,0.499264,0.498982,0.502182,0.499691,0.502937,0.499691,0.4992,0.499691,0.499355,0.368745,0.413745,0.420945,0.4288,0.38749,0.397,0.4044,0.413145
31,0.35244,0.4312,0.43384,0.43824,0.38844,0.4027,0.41544,0.42454,0.50268,0.50048,0.5003,0.50178,0.50028,0.50236,0.50048,0.50236,0.50048,0.50174,0.50048,0.50158,0.5035,0.5004,0.49874,0.49968,0.50042,0.5028,0.5004,0.50212,0.5004,0.49944,0.5004,0.5003,0.506404,0.502508,0.5012,0.501704,0.502304,0.507,0.502508,0.506404,0.502508,0.503252,0.502508,0.503356,0.37274,0.4168,0.4241,0.4305,0.39084,0.4004,0.40634,0.4149
32,0.35657,0.43407,0.435835,0.440435,0.3913,0.406235,0.419135,0.427135,0.505335,0.502535,0.503735,0.503735,0.50379,0.505545,0.502535,0.505145,0.502535,0.5052,0.502535,0.504145,0.50748,0.5033,0.50192,0.50156,0.5026,0.50736,0.5033,0.50708,0.5033,0.50366,0.5033,0.5024,0.51,0.505013,0.5047,0.504613,0.504952,0.509913,0.505013,0.509826,0.505013,0.507613,0.505013,0.506413,0.377205,0.4205,0.4274,0.4329,0.394035,0.402735,0.408735,0.416635
33,0.36219,0.43643,0.4385,0.44236,0.39593,0.4098,0.42263,0.43003,0.50861,0.50481,0.50693,0.50611,0.50611,0.50861,0.50481,0.50751,0.50481,0.50822,0.50481,0.50732,0.51154,0.5057,0.50464,0.50434,0.50514,0.51154,0.5057,0.51054,0.5057,0.50714,0.5057,0.50498,0.512274,0.507274,0.507348,0.507074,0.507674,0.512274,0.507274,0.512748,0.507274,0.512174,0.507274,0.51,0.3804,0.4242,0.42943,0.4341,0.39673,0.40463,0.4117,0.4187
34,0.366475,0.439,0.4404,0.4443,0.39915,0.4132,0.4253,0.43285,0.511775,0.5073,0.51065,0.50885,0.50955,0.511775,0.5073,0.5112,0.5073,0.5106,0.5073,0.51245,0.5143,0.5085,0.5078,0.5071,0.5086,0.5144,0.5085,0.5135,0.5085,0.5107,0.5085,0.5084,0.51674,0.510135,0.510635,0.510435,0.511035,0.51621,0.510135,0.51677,0.510135,0.5177,0.510135,0.5148,0.3833,0.426625,0.431625,0.436325,0.4007,0.4072,0.414625,0.42085
35,0.37132,0.44174,0.4421,0.44732,0.40252,0.4161,0.42812,0.4352,0.51442,0.51012,0.51344,0.5113,0.51146,0.51524,0.51012,0.51424,0.51012,0.5153,0.51012,0.51584,0.51806,0.51126,0.5118,0.51046,0.51226,0.5185,0.51126,0.51796,0.51126,0.51416,0.51126,0.51284,0.521096,0.5134,0.514292,0.5126,0.5142,0.52178,0.5134,0.520996,0.5134,0.521988,0.5134,0.518792,0.3875,0.43032,0.4339,0.4377,0.4042,0.4097,0.41714,0.4232
36,0.374445,0.4438,0.4434,0.449015,0.40753,0.419515,0.4304,0.4376,0.518505,0.513405,0.516505,0.5146,0.51471,0.518605,0.513405,0.518705,0.513405,0.51991,0.513405,0.520105,0.52232,0.51584,0.51664,0.51682,0.51644,0.5225,0.51584,0.5225,0.51584,0.52102,0.51584,0.51792,0.5252,0.516457,0.5204,0.517314,0.5176,0.5254,0.516457,0.525357,0.516457,0.526157,0.516457,0.521885,0.3917,0.432,0.4369,0.4393,0.406715,0.412,0.419615,0.426115
37,0.37931,0.4456,0.44521,0.45171,0.41031,0.42272,0.43281,0.4401,0.5212,0.5173,0.5204,0.51905,0.51794,0.52158,0.5173,0.52217,0.5173,0.5227,0.5173,0.52321,0.52618,0.5185,0.5245,0.52076,0.5204,0.52604,0.5185,0.52716,0.5185,0.5271,0.5185,0.5234,0.5286,0.519818,0.52409,0.523018,0.521454,0.528336,0.519818,0.529454,0.519818,0.530218,0.519818,0.5273,0.39401,0.435,0.43921,0.44061,0.4097,0.41541,0.42344,0.42841
38,0.3843,0.4474,0.447,0.454,0.414,0.426,0.436105,0.442405,0.524135,0.52064,0.52397,0.523235,0.522135,0.523835,0.52064,0.5249,0.52064,0.52547,0.52064,0.525835,0.53082,0.5218,0.5305,0.5273,0.52454,0.5301,0.5218,0.5301,0.5218,0.52972,0.5218,0.53038,0.532137,0.523179,0.529058,0.526979,0.525279,0.5315,0.523179,0.532279,0.523179,0.532537,0.523179,0.532058,0.397105,0.43711,0.44082,0.442505,0.4127,0.418205,0.4262,0.4311
39,0.3881,0.4501,0.4495,0.456,0.4188,0.4287,0.4383,0.4453,0.5274,0.523,0.5275,0.5271,0.5249,0.5274,0.523,0.5276,0.523,0.5286,0.523,0.5287,0.5348,0.5256,0.5344,0.5309,0.5284,0.5339,0.5256,0.5345,0.5256,0.5338,0.5256,0.5353,0.5366,0.5265,0.53468,0.53074,0.52894,0.53672,0.5265,0.53636,0.5265,0.5364,0.5265,0.5346,0.4002,0.44,0.4439,0.4446,0.416,0.4203,0.4288,0.4335
40,0.39239,0.4518,0.452,0.4581,0.42309,0.43029,0.440695,0.447595,0.530065,0.52613,0.532265,0.530765,0.52883,0.52993,0.52613,0.53073,0.52613,0.532065,0.52613,0.53263,0.53782,0.52916,0.5399,0.5376,0.53364,0.53688,0.52916,0.53812,0.52916,0.53846,0.52916,0.54014,0.5415,0.530501,0.539602,0.534302,0.5327,0.541701,0.530501,0.540902,0.530501,0.5399,0.530501,0.5411,0.404,0.4421,0.4464,0.445895,0.41999,0.422995,0.431095,0.4365
41,0.3947,0.4536,0.4552,0.46019,0.4276,0.4338,0.4433,0.45039,0.53363,0.52953,0.53586,0.53556,0.5333,0.53346,0.52953,0.53363,0.52953,0.53523,0.52953,0.53595,0.5406,0.53462,0.5452,0.54246,0.53888,0.53996,0.53462,0.54116,0.53462,0.5445,0.53462,0.54694,0.544262,0.535324,0.54371,0.539924,0.537224,0.5442,0.535324,0.543762,0.535324,0.5443,0.535324,0.54541,0.40806,0.44409,0.44769,0.4484,0.42239,0.42529,0.4334,0.43889
42,0.399055,0.4553,0.456985,0.463585,0.431385,0.436685,0.4468,0.4529,0.5371,0.533385,0.540485,0.539795,0.537585,0.537385,0.533385,0.536595,0.533385,0.540755,0.533385,0.540685,0.54478,0.53838,0.54974,0.54624,0.54256,0.54326,0.53838,0.54538,0.53838,0.5498,0.53838,0.55124,0.548323,0.539023,0.547923,0.544069,0.5412,0.5475,0.539023,0.5475,0.539023,0.548146,0.539023,0.5491,0.410985,0.4469,0.449,0.450685,0.42467,0.42867,0.4354,0.44147
43,0.40394,0.4569,0.459,0.46638,0.4339,0.44068,0.4501,0.4561,0.54162,0.5369,0.5447,0.54326,0.54076,0.5415,0.5369,0.54162,0.5369,0.54488,0.5369,0.5453,0.5492,0.5415,0.5534,0.5498,0.54654,0.54858,0.5415,0.54894,0.5415,0.55322,0.5415,0.55372,0.552668,0.541984,0.550084,0.5472,0.544184,0.551484,0.541984,0.551184,0.541984,0.552484,0.541984,0.5519,0.4155,0.4499,0.4504,0.45278,0.42756,0.4319,0.43748,0.4431
44,0.407825,0.4588,0.461575,0.46915,0.437475,0.4442,0.4537,0.4593,0.54495,0.5407,0.54845,0.546625,0.544525,0.544825,0.5407,0.544925,0.5407,0.5487,0.5407,0.549325,0.5529,0.5455,0.5565,0.5527,0.5497,0.5521,0.5455,0.5517,0.5455,0.5563,0.5455,0.5567,0.5549,0.5451,0.55368,0.55008,0.5475,0.554545,0.5451,0.55358,0.5451,0.554745,0.5451,0.554945,0.419575,0.452275,0.452275,0.4545,0.4305,0.4345,0.439575,0.445
45,0.4129,0.46148,0.46497,0.4721,0.44278,0.4474,0.45817,0.46177,0.54915,0.54469,0.55219,0.55,0.5476,0.54859,0.54469,0.54869,0.54469,0.5509,0.54469,0.5529,0.55622,0.5488,0.5587,0.55694,0.55396,0.5553,0.5488,0.5549,0.5488,0.55886,0.5488,0.5599,0.558006,0.548412,0.555436,0.553806,0.5514,0.557012,0.548412,0.5558,0.548412,0.557212,0.548412,0.557912,0.42267,0.45591,0.4543,0.45657,0.43367,0.4366,0.4418,0.4473
46,0.418595,0.4658,0.4691,0.4746,0.447165,0.45106,0.4624,0.46333,0.553155,0.54701,0.5554,0.553255,0.551565,0.55241,0.54701,0.55321,0.54701,0.554655,0.54701,0.556955,0.5607,0.55328,0.5617,0.55936,0.5574,0.55922,0.55328,0.55852,0.55328,0.5628,0.55328,0.56262,0.5609,0.551467,0.5594,0.555901,0.5539,0.5606,0.551467,0.559334,0.551467,0.560967,0.551467,0.5609,0.4259,0.4584,0.4559,0.458065,0.436395,0.439365,0.444595,0.449865
47,0.4231,0.46786,0.472,0.47752,0.45182,0.4549,0.4678,0.46576,0.55702,0.55062,0.55824,0.55734,0.55512,0.5556,0.55062,0.55602,0.55062,0.55936,0.55062,0.55994,0.56348,0.5558,0.56378,0.5616,0.55956,0.56338,0.5558,0.56206,0.5558,0.5642,0.5558,0.56506,0.564028,0.553956,0.5608,0.5584,0.557056,0.562956,0.553956,0.561456,0.553956,0.5635,0.553956,0.562828,0.42962,0.4597,0.4586,0.4598,0.43956,0.44292,0.4474,0.4526
48,0.429355,0.469655,0.4748,0.480855,0.4564,0.4579,0.472255,0.468855,0.56147,0.5528,0.561585,0.5601,0.55747,0.561,0.5528,0.5596,0.5528,0.564085,0.5528,0.5628,0.56818,0.55888,0.56548,0.5645,0.5617,0.56774,0.55888,0.5653,0.55888,0.56764,0.55888,0.56774,0.5666,0.556989,0.562889,0.561389,0.5599,0.566,0.556989,0.565356,0.556989,0.565589,0.556989,0.5655,0.43251,0.461,0.4607,0.4617,0.443055,0.4453,0.4508,0.4562
49,0.4348,0.4721,0.47775,0.48725,0.4603,0.4613,0.47655,0.4717,0.56425,0.5561,0.56435,0.56205,0.55985,0.56405,0.5561,0.56325,0.5561,0.56655,0.5561,0.5664,0.5724,0.5603,0.5677,0.5667,0.5639,0.5714,0.5603,0.5691,0.5603,0.5716,0.5603,0.5703,0.5703,0.5594,0.56645,0.5638,0.5617,0.56945,0.5594,0.56785,0.5594,0.5688,0.5594,0.56775,0.4366,0.4629,0.4628,0.4629,0.4468,0.4483,0.4545,0.45995
50,0.43979,0.474345,0.4804,0.4923,0.4635,0.464845,0.47859,0.4752,0.568315,0.55843,0.566645,0.5647,0.561915,0.567415,0.55843,0.56693,0.55843,0.569715,0.55843,0.569145,0.57632,0.5631,0.56992,0.5684,0.56606,0.57484,0.5631,0.5727,0.5631,0.57464,0.5631,0.57312,0.573211,0.5617,0.5685,0.566611,0.564122,0.5732,0.5617,0.5719,0.5617,0.571411,0.5617,0.5702,0.439745,0.464845,0.4647,0.46449,0.450545,0.45269,0.45829,0.46279
51,0.44446,0.47734,0.48508,0.49694,0.46674,0.4684,0.4812,0.47874,0.57258,0.5612,0.56898,0.56706,0.5646,0.57116,0.5612,0.57112,0.5612,0.57278,0.5612,0.57228,0.57882,0.56532,0.57272,0.5703,0.56822,0.5776,0.56532,0.57644,0.56532,0.5773,0.56532,0.57606,0.575932,0.5641,0.571044,0.569072,0.566844,0.5753,0.5641,0.574644,0.5641,0.574172,0.5641,0.572444,0.4429,0.4664,0.46674,0.4671,0.45314,0.45624,0.46134,0.46674
52,0.4511,0.479735,0.49017,0.5012,0.469635,0.472,0.484835,0.482235,0.57609,0.563245,0.572735,0.568545,0.56699,0.575545,0.563245,0.575145,0.563245,0.575835,0.563245,0.574845,0.58196,0.56698,0.57632,0.57356,0.57006,0.5803,0.56698,0.57946,0.56698,0.57978,0.56698,0.57858,0.579333,0.567,0.572932,0.571366,0.5689,0.579133,0.567,0.577933,0.567,0.5768,0.567,0.575066,0.447535,0.46857,0.469235,0.4692,0.45607,0.4603,0.465305,0.469735
53,0.4569,0.48343,0.4933,0.5051,0.47323,0.4781,0.4882,0.48583,0.5797,0.56553,0.57542,0.57173,0.5688,0.57901,0.56553,0.57802,0.56553,0.57873,0.56553,0.57761,0.585,0.56924,0.5781,0.57582,0.57236,0.58432,0.56924,0.5825,0.56924,0.58344,0.56924,0.58144,0.582694,0.5693,0.5749,0.574,0.570794,0.582294,0.5693,0.580588,0.5693,0.579088,0.5693,0.5776,0.45139,0.47103,0.4706,0.47063,0.45853,0.46333,0.47033,0.4715
54,0.462225,0.486625,0.497025,0.5096,0.477725,0.482625,0.491125,0.4901,0.58285,0.568475,0.579025,0.574375,0.570925,0.582375,0.568475,0.5819,0.568475,0.581775,0.568475,0.5803,0.5878,0.5713,0.5807,0.5789,0.5744,0.5871,0.5713,0.5855,0.5713,0.5853,0.5713,0.5838,0.5857,0.57161,0.57741,0.576455,0.5737,0.58541,0.57161,0.583155,0.57161,0.58222,0.57161,0.579355,0.456125,0.4731,0.4725,0.4719,0.461625,0.465975,0.47555,0.4732
55,0.46602,0.4893,0.5019,0.5133,0.48252,0.48812,0.49532,0.4924,0.5876,0.57034,0.5811,0.5772,0.57344,0.5871,0.57034,0.58572,0.57034,0.5847,0.57034,0.58258,0.59136,0.574,0.58376,0.5807,0.5768,0.58998,0.574,0.58856,0.574,0.58792,0.574,0.58706,0.5877,0.573332,0.5792,0.579716,0.5749,0.587016,0.573332,0.585916,0.573332,0.584216,0.573332,0.582816,0.4595,0.47454,0.4741,0.4733,0.4655,0.471,0.47912,0.47642
56,0.469815,0.491815,0.505515,0.515315,0.48773,0.492915,0.4988,0.494615,0.591305,0.5731,0.583515,0.579705,0.5765,0.590505,0.5731,0.5898,0.5731,0.58811,0.5731,0.587105,0.59432,0.5768,0.5867,0.5834,0.579,0.59342,0.5768,0.5918,0.5768,0.59112,0.5768,0.5903,0.590277,0.576177,0.5819,0.581654,0.577977,0.5896,0.576177,0.5882,0.576177,0.5864,0.576177,0.585377,0.463445,0.4756,0.4753,0.4756,0.469315,0.474215,0.48329,0.479415
57,0.4762,0.4953,0.5095,0.51921,0.49201,0.49705,0.5009,0.49691,0.59587,0.57547,0.58707,0.583,0.5782,0.59551,0.57547,0.59327,0.57547,0.59178,0.57547,0.5898,0.59798,0.57956,0.58928,0.58564,0.5814,0.59658,0.57956,0.5956,0.57956,0.59376,0.57956,0.5924,0.592414,0.579138,0.5848,0.583138,0.580376,0.591638,0.579138,0.591238,0.579138,0.588138,0.579138,0.587438,0.4687,0.47681,0.477,0.47741,0.4721,0.4779,0.4866,0.48262
58,0.4804,0.49731,0.5142,0.524905,0.495815,0.502505,0.504105,0.499505,0.59987,0.577435,0.589135,0.58737,0.5817,0.59954,0.577435,0.598135,0.577435,0.595905,0.577435,0.593735,0.60058,0.58334,0.59138,0.58774,0.58434,0.5992,0.58334,0.59864,0.58334,0.59598,0.58334,0.5943,0.595,0.582,0.586499,0.585196,0.582699,0.594698,0.582,0.594199,0.582,0.590399,0.582,0.5894,0.472405,0.478905,0.4792,0.479005,0.476105,0.481705,0.490515,0.485205
59,0.4868,0.4997,0.5185,0.5286,0.501,0.5069,0.5072,0.5023,0.604,0.58,0.5927,0.5904,0.5845,0.6033,0.58,0.6022,0.58,0.5998,0.58,0.5977,0.603,0.5853,0.5939,0.591,0.5867,0.6026,0.5853,0.6012,0.5853,0.599,0.5853,0.5976,0.59774,0.58516,0.58846,0.58716,0.58556,0.59686,0.58516,0.59586,0.58516,0.59296,0.58516,0.59142,0.476,0.4817,0.4826,0.4813,0.4797,0.4854,0.4936,0.4881
60,0.49379,0.50349,0.52138,0.5324,0.506395,0.510895,0.512295,0.5053,0.60893,0.582465,0.596125,0.592665,0.5878,0.608365,0.582465,0.60696,0.582465,0.60253,0.582465,0.6003,0.60776,0.58738,0.59674,0.5934,0.58972,0.6066,0.58738,0.60498,0.58738,0.6017,0.58738,0.60002,0.601621,0.588,0.591121,0.589242,0.587542,0.600821,0.588,0.59881,0.588,0.595242,0.588,0.593821,0.47919,0.484295,0.485995,0.4835,0.4829,0.49009,0.4961,0.4898
61,0.49959,0.5091,0.5267,0.53499,0.51068,0.51618,0.51727,0.5079,0.61273,0.5847,0.59913,0.59493,0.59053,0.61143,0.5847,0.61003,0.5847,0.606,0.5847,0.60293,0.61162,0.5899,0.5988,0.5956,0.59292,0.611,0.5899,0.60984,0.5899,0.60522,0.5899,0.6028,0.6051,0.5898,0.5941,0.5915,0.590082,0.603492,0.5898,0.602082,0.5898,0.5973,0.5898,0.595882,0.48307,0.48768,0.4879,0.48499,0.486,0.49479,0.49919,0.49238
62,0.50404,0.514185,0.529485,0.54151,0.51547,0.521785,0.522,0.510285,0.61689,0.588295,0.6023,0.597395,0.5929,0.616095,0.588295,0.61449,0.588295,0.609595,0.588295,0.607295,0.6151,0.59338,0.60078,0.598,0.5956,0.6148,0.59338,0.61338,0.59338,0.6084,0.59338,0.60496,0.6102,0.5917,0.596472,0.593943,0.592129,0.608,0.5917,0.6051,0.5917,0.600186,0.5917,0.598143,0.487785,0.4908,0.490585,0.48867,0.4904,0.498085,0.5024,0.4951
63,0.5101,0.52126,0.5341,0.54438,0.52216,0.528,0.5259,0.5127,0.62032,0.59106,0.60446,0.60054,0.59526,0.61896,0.59106,0.61762,0.59106,0.61336,0.59106,0.61112,0.61844,0.59598,0.60304,0.6007,0.598,0.61776,0.59598,0.61552,0.59598,0.61144,0.59598,0.60718,0.6126,0.593716,0.5991,0.596312,0.595108,0.611612,0.593716,0.610404,0.593716,0.603004,0.593716,0.601604,0.49268,0.49458,0.4941,0.49068,0.4945,0.50168,0.50624,0.497
64,0.516075,0.52575,0.539275,0.5484,0.52765,0.534475,0.5295,0.5154,0.6238,0.59335,0.6085,0.60255,0.5973,0.62285,0.59335,0.62115,0.59335,0.6169,0.59335,0.6133,0.6221,0.5983,0.6054,0.6023,0.6,0.6207,0.5983,0.6191,0.5983,0.6144,0.5983,0.6104,0.6164,0.596865,0.601465,0.59886,0.597465,0.6152,0.596865,0.612565,0.596865,0.607865,0.596865,0.605065,0.49745,0.498775,0.497475,0.49435,0.497575,0.504225,0.508475,0.4984
65,0.5225,0.53806,0.54964,0.55137,0.5331,0.53997,0.53541,0.51954,0.62678,0.59707,0.61149,0.60558,0.60066,0.62569,0.59707,0.62488,0.59707,0.61979,0.59707,0.61768,0.62726,0.60046,0.60786,0.6041,0.60226,0.62626,0.60046,0.62406,0.60046,0.61846,0.60046,0.61318,0.620152,0.600526,0.6051,0.601226,0.601126,0.619452,0.600526,0.615552,0.600526,0.611,0.600526,0.6083,0.50344,0.50117,0.4997,0.50085,0.50117,0.50834,0.51207,0.50084
66,0.527665,0.5463,0.554965,0.554665,0.54066,0.54479,0.541865,0.525165,0.62981,0.600255,0.6148,0.6074,0.603355,0.629155,0.600255,0.628355,0.600255,0.6237,0.600255,0.6211,0.63042,0.60222,0.61142,0.6058,0.60422,0.62982,0.60222,0.6285,0.60222,0.62162,0.60222,0.6171,0.623161,0.603387,0.608748,0.6043,0.604731,0.622374,0.603387,0.619574,0.603387,0.61347,0.603387,0.611587,0.50863,0.5042,0.5022,0.5059,0.505765,0.51186,0.51619,0.503465
67,0.53762,0.55468,0.55994,0.55782,0.54746,0.5488,0.54698,0.53456,0.63484,0.6033,0.61792,0.61042,0.60632,0.63404,0.6033,0.6327,0.6033,0.6274,0.6033,0.62432,0.63448,0.60416,0.61444,0.60836,0.60578,0.63218,0.60416,0.6313,0.60416,0.62526,0.60416,0.62076,0.627,0.6059,0.611696,0.607544,0.607996,0.625948,0.6059,0.622596,0.6059,0.617948,0.6059,0.6151,0.51346,0.51116,0.50466,0.51192,0.51038,0.5161,0.519,0.50686
68,0.545665,0.5645,0.5643,0.5621,0.55492,0.552655,0.554365,0.545255,0.6383,0.6063,0.6213,0.614155,0.6091,0.637385,0.6063,0.636125,0.6063,0.63127,0.6063,0.626685,0.63784,0.6072,0.61788,0.61134,0.6079,0.63684,0.6072,0.63504,0.6072,0.62796,0.6072,0.62444,0.630909,0.608781,0.614309,0.610654,0.609918,0.630518,0.608781,0.626,0.608781,0.6209,0.608781,0.618427,0.51971,0.516455,0.50921,0.5175,0.515355,0.520555,0.52251,0.5105
69,0.5538,0.57055,0.56905,0.5667,0.56265,0.55835,0.5594,0.5525,0.6416,0.60925,0.62445,0.61675,0.61215,0.64085,0.60925,0.6397,0.60925,0.6343,0.60925,0.62875,0.6424,0.6109,0.6215,0.6148,0.6112,0.6411,0.6109,0.6388,0.6109,0.6318,0.6109,0.6272,0.63548,0.6112,0.61827,0.61327,0.61174,0.63407,0.6112,0.6308,0.6112,0.62415,0.6112,0.62097,0.5266,0.5188,0.51755,0.5218,0.52035,0.5264,0.52595,0.51405
70,0.560345,0.576945,0.573535,0.571,0.566445,0.562145,0.563345,0.5621,0.6457,0.6119,0.626715,0.61973,0.614315,0.644245,0.6119,0.643015,0.6119,0.638315,0.6119,0.6332,0.64656,0.61326,0.62432,0.62012,0.61444,0.64542,0.61326,0.64342,0.61326,0.63492,0.61326,0.63118,0.642255,0.613662,0.621262,0.618331,0.614731,0.6393,0.613662,0.636231,0.613662,0.627793,0.613662,0.624431,0.533245,0.522635,0.523645,0.533225,0.526845,0.5305,0.5299,0.5185
71,0.57026,0.58274,0.5787,0.5745,0.57348,0.56738,0.56764,0.57664,0.65058,0.6134,0.6293,0.62428,0.61772,0.64978,0.6134,0.64878,0.6134,0.64218,0.6134,0.63688,0.6512,0.6175,0.62844,0.62272,0.61834,0.6494,0.6175,0.64762,0.6175,0.63904,0.6175,0.63544,0.647476,0.6183,0.625092,0.6216,0.6183,0.646076,0.6183,0.643268,0.6183,0.632444,0.6183,0.6294,0.53884,0.52504,0.53042,0.54132,0.53532,0.53468,0.5339,0.5248
72,0.57984,0.5915,0.583035,0.5785,0.579905,0.57517,0.57097,0.588335,0.655745,0.61629,0.63239,0.628145,0.620945,0.655435,0.61629,0.65356,0.61629,0.646645,0.61629,0.64009,0.6565,0.6212,0.6325,0.62678,0.62226,0.65516,0.6212,0.65258,0.6212,0.64408,0.6212,0.63828,0.653259,0.622253,0.629453,0.624753,0.621812,0.6508,0.622253,0.647765,0.622253,0.637065,0.622253,0.633853,0.544,0.52707,0.538035,0.5447,0.542635,0.5405,0.536835,0.52994
73,0.58766,0.59573,0.58673,0.58319,0.58646,0.58169,0.57761,0.59586,0.66183,0.61924,0.63542,0.6306,0.62381,0.66122,0.61924,0.6581,0.61924,0.65061,0.61924,0.64402,0.66088,0.62566,0.63584,0.63004,0.62754,0.65988,0.62566,0.65696,0.62566,0.64828,0.62566,0.64334,0.657214,0.624628,0.633814,0.628828,0.626,0.656114,0.624628,0.653814,0.624628,0.643842,0.624628,0.638114,0.5493,0.53281,0.54329,0.54753,0.55166,0.54513,0.53903,0.5353
74,0.593325,0.5988,0.5936,0.589325,0.591175,0.58935,0.583225,0.60295,0.666975,0.6241,0.640375,0.633975,0.6287,0.666975,0.6241,0.6634,0.6241,0.65685,0.6241,0.648775,0.6659,0.6316,0.641,0.6342,0.6322,0.6646,0.6316,0.6615,0.6316,0.6535,0.6316,0.6461,0.66245,0.628775,0.64015,0.63245,0.6309,0.6596,0.628775,0.658,0.628775,0.6497,0.628775,0.645,0.5554,0.543125,0.551825,0.553625,0.556775,0.5517,0.541725,0.5408
75,0.60128,0.6036,0.60168,0.5981,0.59732,0.59812,0.59064,0.6105,0.67218,0.62804,0.64432,0.63798,0.63228,0.67134,0.62804,0.66894,0.62804,0.66268,0.62804,0.65304,0.6709,0.63438,0.64406,0.63982,0.6363,0.66952,0.63438,0.66608,0.63438,0.6596,0.63438,0.65108,0.670744,0.633844,0.645236,0.639824,0.636816,0.66816,0.633844,0.662936,0.633844,0.655944,0.633844,0.652036,0.5622,0.55082,0.5599,0.56194,0.5644,0.55994,0.54504,0.55332
76,0.60936,0.60783,0.606845,0.60543,0.6042,0.60413,0.6011,0.6161,0.677705,0.632525,0.64851,0.642005,0.637005,0.67701,0.632525,0.674205,0.632525,0.6677,0.632525,0.65941,0.67656,0.63856,0.64846,0.6435,0.64022,0.67426,0.63856,0.67212,0.63856,0.6647,0.63856,0.65666,0.675988,0.639291,0.652097,0.646297,0.642491,0.6748,0.639291,0.670597,0.639291,0.661882,0.639291,0.658079,0.569875,0.557745,0.5631,0.568715,0.5694,0.568815,0.550415,0.559515
77,0.6205,0.61513,0.61233,0.61313,0.61124,0.61151,0.60934,0.6217,0.68424,0.63778,0.65317,0.64644,0.64161,0.68268,0.63778,0.68074,0.63778,0.67245,0.63778,0.6634,0.68436,0.64408,0.65628,0.65014,0.64534,0.68436,0.64408,0.68008,0.64408,0.6705,0.64408,0.66438,0.684874,0.64679,0.658448,0.6523,0.649386,0.681258,0.64679,0.676238,0.64679,0.670516,0.64679,0.66459,0.5787,0.5662,0.57121,0.5742,0.57561,0.57751,0.55542,0.56262
78,0.630405,0.62151,0.62071,0.618605,0.619145,0.6233,0.61731,0.62832,0.6888,0.642235,0.65758,0.651835,0.646335,0.68754,0.642235,0.686705,0.642235,0.67707,0.642235,0.67,0.69226,0.64784,0.66266,0.65714,0.65234,0.6913,0.64784,0.68792,0.64784,0.6787,0.64784,0.67098,0.692366,0.654219,0.666152,0.659238,0.6562,0.690514,0.654219,0.6865,0.654219,0.679919,0.654219,0.6762,0.5859,0.57292,0.5784,0.590045,0.584815,0.5826,0.563405,0.56891
79,0.6428,0.6273,0.6272,0.6228,0.627,0.6323,0.6332,0.6343,0.6947,0.6469,0.6647,0.6566,0.6509,0.6924,0.6469,0.6913,0.6469,0.6846,0.6469,0.6738,0.7012,0.6541,0.6702,0.6647,0.6594,0.698,0.6541,0.6961,0.6541,0.6869,0.6541,0.6782,0.70098,0.66016,0.6743,0.66576,0.66094,0.69892,0.66016,0.694,0.66016,0.68868,0.66016,0.68362,0.5951,0.5873,0.5933,0.6076,0.5928,0.5893,0.5751,0.5784
80,0.65409,0.632695,0.632095,0.628295,0.637575,0.639985,0.64469,0.6397,0.70156,0.652265,0.67309,0.66558,0.65636,0.70066,0.652265,0.698265,0.652265,0.68893,0.652265,0.68238,0.7069,0.6607,0.67868,0.67222,0.66442,0.70596,0.6607,0.7048,0.6607,0.6934,0.6607,0.68614,0.706605,0.669541,0.680446,0.673,0.669541,0.703741,0.669541,0.701441,0.669541,0.697564,0.669541,0.691664,0.603195,0.59938,0.607175,0.61828,0.60338,0.5961,0.585885,0.591995
81,0.66918,0.63848,0.63696,0.63965,0.64846,0.65293,0.65269,0.6457,0.70742,0.65698,0.67933,0.67273,0.66356,0.70681,0.65698,0.70399,0.65698,0.69832,0.65698,0.6877,0.7136,0.66564,0.6845,0.67626,0.66992,0.71254,0.66564,0.7105,0.66564,0.70124,0.66564,0.6915,0.715112,0.676006,0.688504,0.679802,0.676602,0.710912,0.676006,0.7094,0.676006,0.705508,0.676006,0.700204,0.61206,0.61288,0.622,0.6247,0.61298,0.6019,0.59638,0.60509
82,0.679485,0.647925,0.6453,0.652,0.66174,0.663625,0.65937,0.6505,0.7141,0.66769,0.685875,0.679295,0.669175,0.713865,0.66769,0.710895,0.66769,0.703895,0.66769,0.69614,0.72046,0.67314,0.68972,0.6813,0.67656,0.71968,0.67314,0.71772,0.67314,0.70656,0.67314,0.69828,0.722915,0.684489,0.695563,0.685389,0.684078,0.721163,0.684489,0.720926,0.684489,0.71423,0.684489,0.704952,0.623685,0.625255,0.62977,0.63297,0.62098,0.609025,0.6034,0.615485
83,0.69208,0.65388,0.65556,0.6578,0.67484,0.67988,0.66598,0.65842,0.72068,0.67326,0.69394,0.68686,0.67772,0.72036,0.67326,0.71938,0.67326,0.71014,0.67326,0.70408,0.72874,0.67838,0.69922,0.68958,0.6816,0.72838,0.67838,0.72584,0.67838,0.71446,0.67838,0.70594,0.73062,0.692892,0.700848,0.68992,0.690892,0.728268,0.692892,0.726872,0.692892,0.72142,0.692892,0.711188,0.63456,0.63482,0.64008,0.64168,0.63238,0.61974,0.60856,0.62642
84,0.703175,0.661875,0.665825,0.6646,0.684575,0.6922,0.673775,0.6662,0.72925,0.6794,0.7008,0.692075,0.686375,0.72815,0.6794,0.7267,0.6794,0.7179,0.6794,0.709925,0.7369,0.6865,0.7042,0.6954,0.6885,0.7362,0.6865,0.7323,0.6865,0.7226,0.6865,0.7133,0.74057,0.698785,0.7076,0.69787,0.6965,0.73884,0.698785,0.7348,0.698785,0.72957,0.698785,0.71857,0.642725,0.644625,0.6463,0.647875,0.642375,0.624975,0.61625,0.636
85,0.71695,0.67297,0.67107,0.68477,0.70351,0.70947,0.68461,0.6751,0.73978,0.68938,0.70655,0.69814,0.69199,0.73783,0.68938,0.73567,0.68938,0.72504,0.68938,0.71622,0.74908,0.6948,0.71068,0.7013,0.69564,0.74702,0.6948,0.7428,0.6948,0.72926,0.6948,0.72182,0.749592,0.705946,0.71323,0.706,0.705468,0.746046,0.705946,0.744246,0.705946,0.735598,0.705946,0.725684,0.65633,0.65157,0.65544,0.6529,0.65177,0.63704,0.62431,0.64428
86,0.732265,0.689665,0.688235,0.69353,0.715755,0.726995,0.69076,0.68926,0.74801,0.69642,0.713395,0.70473,0.69911,0.747355,0.69642,0.746655,0.69642,0.734905,0.69642,0.72332,0.75908,0.70246,0.71666,0.7079,0.70492,0.75682,0.70246,0.75392,0.70246,0.73634,0.70246,0.72656,0.761614,0.712707,0.721507,0.713307,0.713056,0.758114,0.712707,0.756307,0.712707,0.746142,0.712707,0.731335,0.6723,0.656795,0.66096,0.661365,0.658465,0.64516,0.635,0.651065
87,0.7503,0.70556,0.70016,0.70462,0.73196,0.73432,0.70008,0.70178,0.76126,0.70146,0.7213,0.7113,0.70456,0.75914,0.70146,0.7563,0.70146,0.74258,0.70146,0.72908,0.76954,0.71414,0.72406,0.71836,0.71328,0.76776,0.71414,0.7637,0.71414,0.7478,0.71414,0.73528,0.770836,0.72244,0.728736,0.720572,0.72178,0.769068,0.72244,0.767172,0.72244,0.757768,0.72244,0.7396,0.68426,0.6656,0.6646,0.67176,0.6702,0.65804,0.64682,0.6611
88,0.76416,0.71181,0.71912,0.715765,0.747855,0.751585,0.717165,0.714575,0.774305,0.707195,0.728885,0.7193,0.712485,0.770855,0.707195,0.76897,0.707195,0.752585,0.707195,0.74137,0.78098,0.72582,0.73162,0.72558,0.7226,0.7801,0.72582,0.7756,0.72582,0.75708,0.72582,0.74244,0.780829,0.73538,0.738587,0.7313,0.728516,0.778829,0.73538,0.7777,0.73538,0.768132,0.73538,0.746858,0.70361,0.676355,0.675165,0.700745,0.68141,0.67101,0.670895,0.672255
89,0.78195,0.723,0.72915,0.7209,0.7694,0.759,0.73395,0.72755,0.7873,0.7195,0.73715,0.72705,0.72,0.7833,0.7195,0.77885,0.7195,0.76195,0.7195,0.74795,0.7948,0.7391,0.7447,0.736,0.7344,0.7919,0.7391,0.7864,0.7391,0.7689,0.7391,0.7509,0.79838,0.74692,0.74759,0.74207,0.73909,0.79587,0.74692,0.79475,0.74692,0.78043,0.74692,0.76088,0.72315,0.6925,0.70255,0.7117,0.70035,0.6847,0.68375,0.6885
90,0.80188,0.7405,0.733,0.725275,0.785335,0.7688,0.746515,0.74525,0.801,0.72978,0.74862,0.738145,0.731575,0.799015,0.72978,0.79653,0.72978,0.77335,0.72978,0.75773,0.80338,0.74926,0.75458,0.74786,0.74226,0.80126,0.74926,0.79684,0.74926,0.78206,0.74926,0.76274,0.814814,0.756451,0.764257,0.756155,0.753857,0.810412,0.756451,0.807951,0.756451,0.795159,0.756451,0.772655,0.74036,0.6997,0.724295,0.717845,0.71719,0.700125,0.70129,0.69978
91,0.82674,0.7588,0.73978,0.73464,0.80716,0.7817,0.76108,0.76294,0.81612,0.74214,0.7624,0.74876,0.74302,0.8154,0.74214,0.8093,0.74214,0.78854,0.74214,0.77188,0.81582,0.75612,0.77022,0.76314,0.7562,0.81016,0.75612,0.80454,0.75612,0.79566,0.75612,0.7831,0.832736,0.768736,0.779736,0.772532,0.764708,0.828836,0.768736,0.825112,0.768736,0.80456,0.768736,0.793312,0.76266,0.72588,0.74032,0.724,0.74098,0.72686,0.71976,0.72144
92,0.851515,0.773935,0.750875,0.7397,0.83395,0.80461,0.787035,0.773385,0.831035,0.749545,0.7772,0.76558,0.75095,0.828725,0.749545,0.82413,0.749545,0.801135,0.749545,0.786645,0.82986,0.77548,0.79346,0.78844,0.7853,0.824,0.77548,0.81784,0.77548,0.80494,0.77548,0.80018,0.847946,0.779503,0.804892,0.792811,0.782119,0.847946,0.779503,0.847368,0.779503,0.830828,0.779503,0.810922,0.79132,0.76409,0.7546,0.7312,0.76298,0.75255,0.74824,0.74427
93,0.87778,0.78193,0.76566,0.7442,0.85998,0.81823,0.81073,0.79091,0.84691,0.76183,0.78821,0.77544,0.76541,0.84393,0.76183,0.83987,0.76183,0.81657,0.76183,0.80296,0.85272,0.79842,0.81034,0.80502,0.80288,0.84288,0.79842,0.83858,0.79842,0.82118,0.79842,0.81432,0.889326,0.80569,0.846814,0.827676,0.8091,0.885162,0.80569,0.893838,0.80569,0.882168,0.80569,0.85795,0.81821,0.79188,0.75913,0.741,0.78981,0.76703,0.77694,0.79335
94,0.9203,0.795425,0.77415,0.7596,0.894625,0.835575,0.857775,0.8288,0.878475,0.777775,0.80395,0.79195,0.78295,0.87235,0.777775,0.867475,0.777775,0.833725,0.777775,0.8172,0.8757,0.8326,0.8984,0.8682,0.8501,0.8733,0.8326,0.8658,0.8326,0.8601,0.8326,0.8932,0.94979,0.875695,0.97031,0.93,0.89019,0.94562,0.875695,0.94258,0.875695,0.938195,0.875695,0.962255,0.83975,0.803825,0.7673,0.7513,0.81375,0.796375,0.804125,0.832025
95,0.99738,0.8245,0.78836,0.79276,0.93148,0.88012,0.87376,0.85582,0.90426,0.80408,0.82526,0.81094,0.8054,0.90134,0.80408,0.89208,0.80408,0.85468,0.80408,0.83786,0.9935,0.91364,1.01936,0.98972,0.94548,0.9759,0.91364,0.97176,0.91364,0.99404,0.91364,1.04268,1.06162,0.98626,1.1186,1.06682,1.00965,1.04201,0.98626,1.01791,0.98626,1.10707,0.98626,1.242328,0.88242,0.81332,0.78172,0.77818,0.85152,0.84616,0.86356,0.85136
96,1.080605,0.88675,0.89821,0.90178,0.97509,0.940775,0.911275,0.88829,0.943325,0.83579,0.845065,0.84383,0.8376,0.927795,0.83579,0.910655,0.83579,0.888735,0.83579,0.862245,1.14016,1.0282,1.19932,1.13362,1.08288,1.11888,1.0282,1.1136,1.0282,1.2015,1.0282,1.19236,1.34554,1.21174,1.60155,1.49527,1.409353,1.33649,1.21174,1.3175,1.21174,1.51564,1.21174,1.530085,0.92583,0.855515,0.871345,0.87854,0.876375,0.90321,0.941295,0.86853
97,1.16004,1.03217,1.03391,0.99585,1.07438,1.03541,0.96776,0.99445,0.99167,0.87138,0.89878,0.88871,0.87412,0.97689,0.87138,0.94939,0.87138,0.92081,0.87138,0.90029,1.5358,1.27472,1.37592,1.3088,1.27872,1.5172,1.27472,1.52484,1.27472,1.4966,1.27472,1.41758,2.18762,1.76881,1.89309,1.83097,1.75916,2.11718,1.76881,2.18762,1.76881,2.16242,1.76881,1.99104,1.00434,0.95784,0.96516,0.9652,0.98384,1.01949,0.98151,0.9861
98,1.31253,1.14494,1.077405,1.053,1.2099,1.1871,1.230745,1.188165,1.08662,0.95999,0.95872,0.947035,0.95999,1.0752,0.95999,1.04865,0.95999,1.00665,0.95999,0.977205,2.09904,1.53146,1.53882,1.46434,1.51,2.0464,1.53146,1.7974,1.53146,2.19608,1.53146,1.69068,3.25557,2.35289,2.295,2.23834,2.26343,3.1528,2.35289,2.80287,2.35289,3.37725,2.35289,2.57902,1.16358,1.07731,1.055115,1.011605,1.18443,1.19103,1.12751,1.12867